timestamp,ecg,gsr,gas,pulse,temp,acc_x,acc_y
185715,2365,0,158,91055,36.65,-7.42,-4.59
185747,1544,0,149,89790,35.00,-7.41,-4.62
185769,1902,0,138,89852,35.00,-7.41,-4.61
185791,1509,0,135,89885,35.00,-7.37,-4.64
185813,1403,0,135,89949,35.00,-7.42,-4.64
185835,1373,0,137,89995,35.00,-7.40,-4.60
185857,1607,0,151,89981,35.00,-7.41,-4.58
185879,1925,0,158,89937,35.00,-7.42,-4.60
185901,2159,0,167,89956,35.00,-7.40,-4.57
185923,2425,0,169,90043,35.00,-7.41,-4.65
185945,2428,0,163,90139,35.00,-7.37,-4.60
185987,2193,0,151,90481,35.00,-7.39,-4.62
186733,1810,0,137,90578,36.97,-7.42,-4.63
186769,1565,0,143,90344,35.00,-7.39,-4.58
186791,1373,0,127,90412,35.00,-7.39,-4.66
186813,1388,0,133,90413,35.00,-7.37,-4.61
186835,1555,0,141,90398,35.00,-7.40,-4.60
186857,1939,0,155,90390,35.00,-7.38,-4.63
186879,2156,0,169,90298,35.00,-7.42,-4.58
186901,2441,0,167,89944,35.00,-7.39,-4.63
186923,2355,0,160,89361,35.00,-7.42,-4.62
186945,2229,0,152,88792,35.00,-7.42,-4.63
186967,1833,0,136,88408,35.00,-7.35,-4.58
186989,1541,0,125,88272,35.00,-7.38,-4.58
187030,1387,0,136,88698,35.00,-7.40,-4.60
187052,1387,0,134,88923,35.00,-7.39,-4.60
187074,1485,0,139,89130,35.00,-7.40,-4.64
187096,1802,0,149,89330,35.00,-7.41,-4.62
187118,2149,0,165,89507,35.00,-7.41,-4.65
187140,2300,0,165,89608,35.00,-7.38,-4.64
187162,2460,0,165,89637,35.00,-7.42,-4.62
187184,2265,0,155,89689,35.00,-7.36,-4.61
187206,1958,0,143,89727,35.00,-7.39,-4.63
187228,1640,0,139,89790,35.00,-7.39,-4.58
187270,1331,0,125,89545,35.00,-7.46,-4.63
187292,1261,0,131,89262,35.00,-7.41,-4.64
187314,1581,0,141,89058,35.00,-7.43,-4.61
187336,1903,0,152,89010,35.00,-7.41,-4.60
187358,2191,0,167,89071,35.00,-7.37,-4.62
187380,2401,0,165,89196,35.00,-7.43,-4.59
187402,2441,0,159,89327,35.00,-7.36,-4.65
187424,2298,0,153,89465,35.00,-7.37,-4.66
187446,1902,0,137,89624,35.00,-7.38,-4.59
187468,1545,0,125,89757,35.00,-7.41,-4.63
187490,1384,0,132,89855,35.00,-7.40,-4.60
187531,1397,0,139,90118,35.00,-7.37,-4.59
187553,1453,0,141,90197,35.00,-7.37,-4.61
187575,1769,0,152,90265,35.00,-7.40,-4.62
187597,2073,0,168,90316,35.00,-7.39,-4.59
187619,2353,0,167,90364,35.00,-7.40,-4.58
187641,2470,0,165,90479,35.00,-7.37,-4.64
187663,2284,0,157,90617,35.00,-7.39,-4.61
187685,1947,0,145,90728,35.00,-7.40,-4.62
187707,1606,0,135,90765,35.00,-7.40,-4.60
187729,1427,0,127,90774,35.00,-7.37,-4.60
187772,1401,0,135,90375,35.00,-7.42,-4.61
187794,1661,0,147,89877,35.00,-7.40,-4.59
187816,2007,0,159,89525,35.00,-7.40,-4.56
187838,2343,0,169,89362,35.00,-7.39,-4.57
187860,2395,0,165,89408,35.00,-7.35,-4.60
187882,2405,0,157,89534,35.00,-7.43,-4.57
187904,2109,0,146,89631,35.00,-7.43,-4.53
187926,1677,0,124,89649,35.00,-7.37,-4.56
187948,1439,0,124,89595,35.00,-7.41,-4.58
187970,1353,0,123,89571,35.00,-7.39,-4.58
188514,1459,0,141,89808,36.70,-7.41,-4.56
188553,2137,0,165,89943,35.00,-7.40,-4.57
188575,2011,0,159,90084,35.00,-7.38,-4.55
188597,2312,0,164,90317,35.00,-7.40,-4.53
188619,2608,0,167,90562,35.00,-7.41,-4.54
188641,2335,0,155,90728,35.00,-7.41,-4.55
188663,1853,0,139,90857,35.00,-7.41,-4.54
188685,1605,0,133,90945,35.00,-7.39,-4.55
188707,1374,0,133,91009,35.00,-7.36,-4.56
188729,1327,0,135,91018,35.00,-7.38,-4.58
188751,1515,0,143,90975,35.00,-7.39,-4.56
188773,1769,0,151,90949,35.00,-7.43,-4.56
188814,2109,0,165,90973,35.00,-7.36,-4.52
188836,2187,0,165,90972,35.00,-7.42,-4.55
188858,2460,0,168,91022,35.00,-7.40,-4.52
188880,2372,0,157,91086,35.00,-7.39,-4.54
188902,2093,0,143,91121,35.00,-7.38,-4.53
188924,1771,0,135,91126,35.00,-7.45,-4.54
188946,1503,0,123,91138,35.00,-7.41,-4.55
188968,1351,0,133,91178,35.00,-7.37,-4.53
188990,1469,0,140,91264,35.00,-7.40,-4.55
189531,1745,0,151,91327,37.06,-7.42,-4.55
189561,2102,0,163,96995,35.00,-7.40,-4.57
189583,1645,0,135,97237,35.00,-7.37,-4.52
189605,1421,0,132,97405,35.00,-7.39,-4.53
189627,1367,0,135,97342,35.00,-7.43,-4.54
189649,1515,0,146,97077,35.00,-7.39,-4.54
189671,1763,0,149,96647,35.00,-7.38,-4.55
189693,1839,0,163,96279,35.00,-7.42,-4.50
189715,2387,0,169,95757,35.00,-7.39,-4.53
189756,2445,0,169,93574,35.00,-7.40,-4.57
189778,2363,0,164,93494,35.00,-7.39,-4.53
189800,2219,0,155,93667,35.00,-7.42,-4.54
189822,1807,0,139,93970,35.00,-7.40,-4.55
189844,1527,0,137,94232,35.00,-7.41,-4.51
189866,1375,0,132,94347,35.00,-7.37,-4.54
189888,2541,0,158,94289,35.00,-7.36,-4.51
189910,1071,0,135,94119,35.00,-7.41,-4.57
189932,1497,0,150,93836,35.00,-7.43,-4.49
189954,2297,0,169,93573,35.00,-7.41,-4.52
189976,2457,0,172,93346,35.00,-7.36,-4.51
190549,1956,0,146,92397,36.49,-7.44,-4.51
190579,2091,0,163,91902,35.00,-7.37,-4.44
190601,1255,0,121,91915,35.00,-7.52,-4.50
190623,1629,0,136,91875,35.00,-7.54,-4.53
190645,1381,0,133,91846,35.00,-7.45,-4.47
190667,1547,0,141,91818,35.00,-7.44,-4.50
190689,1755,0,151,91823,35.00,-7.41,-4.44
190711,2067,0,159,91849,35.00,-7.42,-4.50
190733,2321,0,168,91892,35.00,-7.43,-4.49
190755,2505,0,171,91915,35.00,-7.41,-4.49
190777,2421,0,157,91926,35.00,-7.41,-4.52
190819,2072,0,142,92133,35.00,-7.44,-4.50
190841,1741,0,135,92201,35.00,-7.39,-4.49
190863,1371,0,127,92215,35.00,-7.38,-4.44
190885,1415,0,135,92256,35.00,-7.35,-4.48
190907,1615,0,142,92290,35.00,-7.36,-4.46
190929,1735,0,151,92328,35.00,-7.42,-4.46
190951,2221,0,165,92430,35.00,-7.42,-4.48
190973,2357,0,167,92520,35.00,-7.41,-4.51
190995,2440,0,165,92570,35.00,-7.41,-4.45
191567,1583,0,139,92578,36.76,-7.47,-4.52
191601,2147,65540,163,92509,35.00,-7.41,-4.51
191623,1182,59192,127,92560,35.00,-7.40,-4.54
191645,1356,59576,143,92655,35.00,-7.40,-4.51
191667,1726,56792,152,92738,35.00,-7.39,-4.50
191689,1989,55512,157,92775,35.00,-7.42,-4.54
191711,2297,55128,167,92802,35.00,-7.42,-4.54
191733,2438,54616,169,92856,35.00,-7.44,-4.55
191755,2357,54616,163,92917,35.00,-7.44,-4.49
191777,2095,55128,151,92975,35.00,-7.39,-4.51
191799,1709,55128,137,92990,35.00,-7.40,-4.53
191842,1399,55512,134,91626,35.00,-7.38,-4.56
191864,1318,55128,136,91245,35.00,-7.40,-4.52
191886,1583,55512,152,91116,35.00,-7.40,-4.51
191908,1927,56024,159,91217,35.00,-7.39,-4.52
191930,2181,56024,168,91422,35.00,-7.41,-4.50
191952,2345,56792,168,91621,35.00,-7.39,-4.53
191974,2407,56024,160,91762,35.00,-7.40,-4.51
191996,2143,56024,151,91874,35.00,-7.41,-4.49
192585,1763,56024,139,91971,36.90,-7.43,-4.50
192623,1847,0,157,91220,35.00,-7.41,-4.55
192645,1560,0,141,91346,35.00,-7.40,-4.58
192667,1717,0,160,91538,35.00,-7.42,-4.58
192689,1981,0,171,91748,35.00,-7.37,-4.63
192711,2311,24624,173,91888,35.00,-7.38,-4.62
192733,2219,39624,165,91999,35.00,-7.40,-4.63
192755,2187,40392,150,92088,35.00,-7.35,-4.60
192777,1954,36936,139,92145,35.00,-7.40,-4.58
192799,1509,13664,125,92186,35.00,-7.44,-4.62
192821,1415,4160,136,92189,35.00,-7.38,-4.62
192843,1340,1792,139,92181,35.00,-7.43,-4.57
192884,1775,512,151,92191,35.00,-7.44,-4.57
192906,1883,0,155,92228,35.00,-7.42,-4.60
192928,2151,0,165,92253,35.00,-7.41,-4.58
192950,2428,0,168,92276,35.00,-7.41,-4.57
192972,2439,0,167,92313,35.00,-7.37,-4.58
192994,2227,0,155,92401,35.00,-7.38,-4.61
193356,1917,24624,147,92549,37.24,-7.37,-4.58
193385,1421,5952,127,91780,35.00,-7.39,-4.60
193407,1995,1280,159,92011,35.00,-7.38,-4.60
193429,2343,512,169,92204,35.00,-7.41,-4.59
193451,2388,0,165,92357,35.00,-7.40,-4.56
193473,2303,0,155,92466,35.00,-7.38,-4.56
193495,1835,0,141,92572,35.00,-7.40,-4.58
193517,1517,0,135,92657,35.00,-7.40,-4.61
193539,1292,0,135,92688,35.00,-7.42,-4.59
193561,1174,38216,139,92632,35.00,-7.32,-4.55
193583,1301,38216,147,92552,35.00,-7.47,-4.63
193605,1725,38216,159,92560,35.00,-7.39,-4.63
193646,2057,38216,166,92768,35.00,-7.62,-4.79
193668,1693,38216,155,92861,35.00,-6.85,-4.63
193690,1447,38216,157,92957,35.00,-7.20,-4.88
193712,2341,38216,165,93015,35.00,-7.44,-4.67
193734,2328,38216,149,93056,35.00,-7.39,-4.82
193756,2019,38216,139,93091,35.00,-7.28,-4.76
193778,2108,38216,142,93153,35.00,-7.44,-4.79
193800,1629,38216,139,93204,35.00,-7.40,-4.71
193822,1737,38216,149,93258,35.00,-7.40,-4.69
193844,2009,38216,159,93305,35.00,-7.43,-4.74
193887,2195,38216,173,93292,35.00,-7.41,-4.73
193909,2533,38216,168,93311,35.00,-7.38,-4.73
193931,2345,38216,165,93356,35.00,-7.40,-4.68
193953,2126,38216,153,93440,35.00,-7.35,-4.70
193975,1706,38216,143,93545,35.00,-7.37,-4.67
193997,1447,38216,137,93583,35.00,-7.40,-4.71
194366,1320,38216,137,93481,36.86,-7.41,-4.69
194408,2391,38216,173,93116,35.00,-7.39,-4.71
194430,2229,38216,159,93199,35.00,-7.36,-4.73
194452,2153,38216,151,93259,35.00,-7.47,-4.80
194474,1437,38216,137,93321,35.00,-7.45,-4.81
194496,1087,38216,136,93382,35.00,-7.26,-4.80
194518,1379,38216,140,93433,35.00,-7.41,-4.77
194540,1851,38216,149,93503,35.00,-7.38,-4.79
194562,1989,38216,155,93557,35.00,-7.38,-4.72
194584,2251,38216,168,93605,35.00,-7.41,-4.75
194606,2349,38216,169,93630,35.00,-7.40,-4.74
194648,2351,38216,171,93754,35.00,-7.37,-4.73
194670,2333,38216,157,93787,35.00,-7.41,-4.67
194692,2091,38216,149,93817,35.00,-7.40,-4.72
194714,1633,38216,136,93816,35.00,-7.36,-4.73
194736,1379,38216,127,93849,35.00,-7.38,-4.72
194758,1315,38216,135,93940,35.00,-7.39,-4.73
194780,1509,38216,142,93898,35.00,-7.39,-4.73
194802,1719,38216,150,93507,35.00,-7.35,-4.65
194824,2003,38216,163,92937,35.00,-7.35,-4.70
194846,2301,38216,169,92481,35.00,-7.39,-4.75
194868,2347,38216,167,92206,35.00,-7.41,-4.73
194909,2216,38216,154,92526,35.00,-7.37,-4.73
194931,2091,38216,148,92727,35.00,-7.38,-4.71
194953,1742,38216,140,92863,35.00,-7.39,-4.72
194975,1405,38216,133,92958,35.00,-7.41,-4.69
194997,1307,38216,135,93040,35.00,-7.39,-4.72
195383,1426,38216,139,93124,36.78,-7.33,-4.71
195411,2284,38216,167,93763,35.00,-7.40,-4.71
195433,1455,38216,125,93815,35.00,-7.42,-4.71
195455,1389,38216,135,93908,35.00,-7.42,-4.68
195477,1335,38216,137,93974,35.00,-7.40,-4.70
195499,1399,38216,142,93862,35.00,-7.37,-4.73
195521,1741,38216,156,93422,35.00,-7.40,-4.70
195543,2119,38216,165,92868,35.00,-7.40,-4.69
195565,2287,38216,168,92437,35.00,-7.40,-4.68
195587,2387,38216,165,92197,35.00,-7.38,-4.71
195609,2213,38216,155,92193,35.00,-7.39,-4.75
195651,1897,38216,143,92726,35.00,-7.41,-4.72
195673,1543,38216,139,92888,35.00,-7.40,-4.70
195695,1243,38216,133,93010,35.00,-7.38,-4.66
195717,1351,38216,140,93178,35.00,-7.38,-4.71
195739,1460,38216,148,93330,35.00,-7.36,-4.70
195761,1800,38216,156,93353,35.00,-7.36,-4.70
195783,2106,38216,168,93286,35.00,-7.39,-4.66
195805,2343,38216,173,93239,35.00,-7.41,-4.69
195827,2363,38216,165,93205,35.00,-7.37,-4.71
195849,2149,38216,155,93180,35.00,-7.37,-4.70
195891,1819,38216,143,93263,35.00,-7.39,-4.73
195913,1429,38216,127,93348,35.00,-7.45,-4.74
195935,1135,38216,127,93435,35.00,-7.35,-4.75
195957,1211,38216,140,93467,35.00,-7.29,-4.75
195979,1595,38216,153,93486,35.00,-7.39,-4.74
196402,1789,38216,155,93504,37.28,-7.40,-4.71
196433,2265,0,173,93324,35.00,-7.37,-4.82
196455,1337,0,125,93286,35.00,-7.41,-4.84
196477,1527,0,143,93214,35.00,-7.35,-4.84
196499,1709,0,151,93094,35.00,-7.41,-4.78
196521,2023,0,165,93065,35.00,-7.38,-4.79
196543,2207,0,166,93133,35.00,-7.40,-4.84
196565,2406,0,169,93227,35.00,-7.40,-4.79
196587,2329,0,164,93301,35.00,-7.39,-4.78
196609,1991,0,149,93359,35.00,-7.38,-4.77
196631,1679,0,137,93424,35.00,-7.38,-4.77
196673,1396,0,127,93725,35.00,-7.38,-4.78
196695,1267,0,134,93800,35.00,-7.41,-4.85
196717,1435,0,149,93831,35.00,-7.40,-4.78
196739,1701,0,155,93919,35.00,-7.33,-4.76
196761,2067,0,163,94002,35.00,-7.38,-4.80
196783,2283,0,169,94062,35.00,-7.41,-4.77
196805,2323,0,165,94075,35.00,-7.40,-4.76
196827,2259,0,155,94129,35.00,-7.40,-4.79
196849,1875,0,145,94191,35.00,-7.39,-4.77
196871,1519,0,133,94014,35.00,-7.37,-4.77
196893,1267,0,134,93475,35.00,-7.37,-4.78
196934,1356,0,137,92440,35.00,-7.37,-4.76
196956,1362,0,139,92562,35.00,-7.42,-4.79
196978,1613,0,149,92731,35.00,-7.38,-4.82
197419,2028,0,163,92909,36.70,-7.41,-4.78
197455,2423,0,167,94191,35.00,-7.41,-4.74
197477,1562,0,144,94226,35.00,-7.41,-4.80
197499,2059,0,165,94273,35.00,-7.38,-4.78
197521,2357,0,170,94332,35.00,-7.41,-4.79
197543,2407,0,167,94388,35.00,-7.41,-4.78
197565,2476,0,159,94394,35.00,-7.41,-4.79
197587,2215,0,150,94023,35.00,-7.42,-4.78
197609,1657,0,136,93373,35.00,-7.38,-4.79
197631,1372,0,137,92812,35.00,-7.40,-4.80
197653,1485,0,141,92525,35.00,-7.37,-4.78
197675,1437,0,143,92481,35.00,-7.36,-4.79
197716,1717,0,157,93009,35.00,-7.37,-4.75
197738,1805,0,156,93211,35.00,-7.39,-4.75
197760,2227,0,168,93329,35.00,-7.40,-4.81
197782,2315,0,167,93425,35.00,-7.40,-4.78
197804,2348,0,165,93514,35.00,-7.41,-4.76
197826,2135,0,153,93533,35.00,-7.39,-4.76
197848,1753,0,141,93471,35.00,-7.42,-4.76
197870,1372,0,125,93408,35.00,-7.34,-4.72
197892,1357,0,135,93347,35.00,-7.38,-4.74
197914,1437,0,141,93332,35.00,-7.34,-4.74
197957,1528,0,147,93492,35.00,-7.37,-4.75
197979,2103,0,157,93537,35.00,-7.38,-4.75
198691,2296,0,165,93600,37.11,-7.40,-4.72
198718,1608,0,141,93312,35.00,-7.41,-4.81
198740,2361,0,167,93393,35.00,-7.37,-4.80
198762,2567,0,166,93492,35.00,-7.37,-4.81
198784,2246,0,151,93561,35.00,-7.38,-4.82
198806,1910,0,142,93595,35.00,-7.39,-4.79
198828,1523,0,137,93649,35.00,-7.38,-4.81
198850,1383,0,137,93637,35.00,-7.40,-4.83
198872,1384,0,134,93653,35.00,-7.38,-4.80
198894,1619,0,149,93735,35.00,-7.36,-4.78
198916,1992,0,155,93784,35.00,-7.39,-4.80
198938,2303,0,165,93803,35.00,-7.37,-4.77
198979,2413,0,167,93897,35.00,-7.41,-4.77
199709,2445,0,159,93974,36.87,-7.37,-4.79
199741,1350,0,137,92480,35.00,-7.35,-4.70
199763,1820,0,137,92062,35.00,-7.41,-4.78
199785,1811,0,141,91862,35.00,-7.38,-4.78
199807,1406,0,126,91844,35.00,-7.35,-4.78
199829,1315,0,133,91971,35.00,-7.40,-4.77
199851,1452,0,137,92177,35.00,-7.36,-4.80
199873,1828,0,153,92396,35.00,-7.37,-4.71
199895,2135,0,165,92531,35.00,-7.38,-4.75
199917,2311,0,169,92673,35.00,-7.38,-4.73
199939,2447,0,165,92837,35.00,-7.40,-4.75
199982,2285,0,157,92869,35.00,-7.39,-4.75
200727,1836,0,135,92839,37.48,-7.40,-4.74
200764,1353,0,133,93131,35.00,-7.36,-4.79
200786,1476,0,133,93221,35.00,-7.41,-4.76
200808,1337,0,137,93358,35.00,-7.35,-4.77
200830,1669,0,151,93474,35.00,-7.36,-4.75
200852,1763,0,151,93537,35.00,-7.39,-4.77
200874,2091,0,166,93560,35.00,-7.37,-4.78
200896,2403,0,169,93648,35.00,-7.39,-4.78
200918,2359,0,165,93750,35.00,-7.40,-4.77
200940,2075,0,154,93813,35.00,-7.41,-4.76
200962,1759,0,142,93830,35.00,-7.37,-4.78
201745,1517,0,135,93950,36.88,-7.36,-4.78
201786,1359,0,133,92559,35.00,-7.40,-4.86
201808,1352,0,135,92216,35.00,-7.31,-4.84
201830,1693,0,152,92099,35.00,-7.39,-4.81
201852,1978,0,159,92174,35.00,-7.36,-4.81
201874,2267,0,165,92372,35.00,-7.44,-4.86
201896,2003,0,159,92572,35.00,-7.34,-4.85
201918,2313,0,157,92763,35.00,-7.39,-4.80
201940,1907,0,141,92919,35.00,-7.38,-4.84
201962,1483,0,135,93063,35.00,-7.40,-4.78
201984,1267,0,137,93164,35.00,-7.36,-4.81
202508,1195,0,133,93234,36.48,-7.40,-4.82
202548,2007,0,158,92034,35.00,-7.39,-4.85
202570,1897,0,156,92146,35.00,-7.39,-4.80
202592,2223,0,169,92289,35.00,-7.36,-4.83
202614,2277,0,167,92489,35.00,-7.39,-4.80
202636,2378,0,159,92727,35.00,-7.41,-4.85
202658,2056,0,151,92904,35.00,-7.37,-4.82
202680,1653,0,139,93058,35.00,-7.41,-4.81
202702,1463,0,133,93169,35.00,-7.37,-4.80
202724,1285,0,135,93213,35.00,-7.38,-4.79
202746,1507,0,146,93142,35.00,-7.40,-4.81
202789,1640,0,150,93149,35.00,-7.39,-4.81
202811,2237,0,167,93095,35.00,-7.34,-4.84
202833,2439,0,168,93113,35.00,-7.39,-4.81
202855,2397,0,163,93202,35.00,-7.38,-4.78
202877,2074,0,151,93261,35.00,-7.38,-4.82
202899,1817,0,141,93317,35.00,-7.39,-4.82
202921,1571,0,138,93342,35.00,-7.38,-4.83
202943,1325,0,133,93387,35.00,-7.40,-4.83
202965,1397,0,140,93428,35.00,-7.34,-4.78
202987,1542,0,151,93450,35.00,-7.40,-4.83
203029,1883,0,158,93501,35.00,-7.33,-4.84
203051,2141,0,165,93489,35.00,-7.35,-4.81
203073,2303,0,167,93508,35.00,-7.41,-4.78
203095,2301,0,157,93549,35.00,-7.37,-4.80
203117,2075,0,151,93586,35.00,-7.39,-4.80
203139,1669,0,139,93569,35.00,-7.40,-4.81
203161,1335,0,133,93355,35.00,-7.36,-4.81
203183,1277,0,136,92866,35.00,-7.35,-4.83
203205,1402,0,138,92383,35.00,-7.39,-4.78
203227,1662,0,153,92055,35.00,-7.37,-4.83
203249,1915,0,159,91949,35.00,-7.36,-4.80
203290,2324,0,171,92523,35.00,-7.38,-4.85
203312,2376,0,167,92739,35.00,-7.38,-4.83
203334,2348,0,160,92860,35.00,-7.37,-4.80
203356,2199,0,154,92974,35.00,-7.37,-4.80
203378,1831,0,140,93124,35.00,-7.40,-4.78
203400,1478,0,133,93181,35.00,-7.41,-4.82
203422,1355,0,135,93166,35.00,-7.41,-4.83
203444,1243,0,135,93135,35.00,-7.36,-4.78
203466,1549,0,149,93182,35.00,-7.39,-4.76
203488,1819,0,158,93218,35.00,-7.41,-4.79
203531,2153,0,165,93365,35.00,-7.41,-4.80
203553,2405,0,165,93461,35.00,-7.35,-4.74
203575,2004,0,151,93514,35.00,-7.38,-4.85
203597,1897,0,143,93593,35.00,-7.39,-4.79
203619,1447,0,132,93652,35.00,-7.36,-4.80
203641,1319,0,133,93701,35.00,-7.38,-4.78
203663,1231,0,124,93749,35.00,-7.40,-4.80
203685,1461,0,139,93824,35.00,-7.41,-4.84
203707,1803,0,153,93832,35.00,-7.38,-4.85
203729,2147,0,171,93847,35.00,-7.40,-4.78
203771,2363,0,167,93957,35.00,-7.37,-4.84
203793,2444,0,168,93985,35.00,-7.39,-4.85
203815,2219,0,151,93910,35.00,-7.33,-4.84
203837,1928,0,143,93495,35.00,-7.40,-4.83
203859,1589,0,133,92895,35.00,-7.38,-4.82
203881,1307,0,135,92385,35.00,-7.38,-4.87
203903,1319,0,139,92158,35.00,-7.39,-4.83
203925,1703,0,149,92147,35.00,-7.42,-4.82
203947,1940,0,159,92299,35.00,-7.30,-4.84
203969,2197,0,165,92508,35.00,-7.41,-4.82
204542,2683,0,175,93106,36.81,-7.44,-4.91
204573,1568,0,149,92239,35.00,-7.39,-4.79
204595,1823,0,140,92088,35.00,-7.35,-4.82
204617,1496,0,134,92149,35.00,-7.35,-4.83
204639,1362,0,135,92375,35.00,-7.36,-4.82
204661,1373,0,137,92639,35.00,-7.40,-4.83
204683,1511,0,147,92867,35.00,-7.39,-4.80
204705,1800,0,159,93042,35.00,-7.38,-4.84
204727,2059,0,165,93124,35.00,-7.39,-4.82
204749,2351,0,169,93179,35.00,-7.38,-4.84
204771,2404,0,165,93195,35.00,-7.36,-4.84
204814,2251,0,155,93267,35.00,-7.41,-4.80
204836,1704,0,136,93265,35.00,-7.37,-4.81
204858,1399,0,135,93225,35.00,-7.37,-4.77
204880,1338,0,142,93198,35.00,-7.36,-4.81
204902,1389,0,141,93227,35.00,-7.38,-4.82
204924,1695,0,151,93300,35.00,-7.39,-4.80
204946,1980,0,165,93384,35.00,-7.41,-4.86
204968,2236,0,167,93447,35.00,-7.33,-4.77
204990,2389,0,167,93451,35.00,-7.35,-4.91
205562,2291,0,159,93425,36.66,-7.37,-4.72
205596,1912,0,157,93526,35.00,-7.44,-4.83
205618,1224,0,123,93579,35.00,-7.45,-4.85
205640,1485,0,141,93649,35.00,-7.38,-4.79
205662,1673,0,149,93753,35.00,-7.42,-4.69
205684,1809,0,155,93888,35.00,-7.36,-4.81
205706,2170,0,165,93951,35.00,-7.35,-4.73
205728,2349,0,165,94036,35.00,-7.41,-4.75
205750,2347,0,159,94146,35.00,-7.40,-4.82
205772,2181,0,152,94241,35.00,-7.43,-4.72
205794,1711,0,138,94301,35.00,-7.34,-4.82
205836,1371,0,133,94501,35.00,-7.35,-4.68
205858,1309,0,125,94640,35.00,-7.42,-4.74
205880,1307,0,137,94747,35.00,-7.44,-4.73
205902,1596,0,147,94672,35.00,-7.35,-4.63
205924,1976,0,155,94285,35.00,-7.43,-4.70
205946,2539,0,169,93748,35.00,-7.42,-4.68
205968,2427,0,167,93465,35.00,-7.42,-4.72
205990,2259,0,155,93471,35.00,-7.42,-4.73
206579,1863,0,145,93863,36.53,-7.35,-4.72
206618,1403,0,147,93398,35.00,-7.58,-4.91
206640,2075,0,165,93078,35.00,-7.38,-4.86
206662,1983,0,157,93097,35.00,-7.43,-4.82
206684,3449,0,199,93414,35.00,-7.39,-4.83
206706,2771,0,176,93913,35.00,-7.41,-4.86
206728,4057,0,202,94472,35.00,-7.42,-4.85
206750,1371,0,142,95133,35.00,-7.40,-4.79
206772,2277,0,169,95828,35.00,-7.38,-4.86
206794,1583,0,139,96505,35.00,-7.33,-4.85
206816,1527,0,135,97141,35.00,-7.42,-4.80
206859,1607,0,143,97706,35.00,-7.25,-4.74
206881,2453,0,163,97722,35.00,-7.78,-4.86
206903,2322,0,169,97659,35.00,-7.64,-4.67
206925,1271,0,152,97555,35.00,-7.67,-5.00
206947,1030,0,159,97438,35.00,-7.58,-4.74
206969,0,0,149,97375,35.00,-7.86,-4.97
206991,0,0,127,97506,35.00,-6.87,-4.78
207597,2269,0,165,97732,36.54,-7.48,-4.86
207628,1947,0,148,98572,35.00,-7.09,-4.62
207650,1736,0,135,99336,35.00,-7.07,-4.67
207672,1351,0,125,99336,35.00,-7.25,-4.79
207694,1079,0,127,99336,35.00,-7.26,-4.73
207716,1179,0,139,99336,35.00,-7.32,-4.74
207738,1373,0,143,99336,35.00,-7.30,-4.76
207760,1771,0,163,99437,35.00,-7.27,-4.74
207801,2157,0,169,96972,35.00,-7.27,-4.81
207823,1997,0,166,96839,35.00,-7.33,-4.80
207845,1919,0,163,96515,35.00,-7.37,-4.77
207867,1855,0,155,96145,35.00,-7.43,-4.77
207889,1618,0,141,95835,35.00,-7.27,-4.73
207911,1386,0,139,95277,35.00,-7.38,-4.75
207933,1259,0,132,94486,35.00,-7.36,-4.76
207955,1017,0,133,93694,35.00,-7.33,-4.79
207977,1193,0,143,93201,35.00,-7.36,-4.71
207999,1374,0,153,93035,35.00,-7.35,-4.89
208042,1786,0,165,94088,35.00,-7.33,-4.73
208064,2159,0,165,94391,35.00,-7.38,-4.77
208086,2093,0,157,94514,35.00,-7.39,-4.76
208108,1814,0,147,94612,35.00,-7.30,-4.75
208130,1525,0,134,94766,35.00,-7.33,-4.79
208152,1245,0,134,94918,35.00,-7.42,-4.76
208174,1121,0,133,94929,35.00,-7.36,-4.76
208196,1191,0,137,94916,35.00,-7.40,-4.74
208218,1451,0,152,94839,35.00,-7.35,-4.80
208240,1823,0,159,94728,35.00,-7.42,-4.76
208282,2133,0,167,94870,35.00,-7.35,-4.74
208304,2296,0,165,95018,35.00,-7.31,-4.72
208326,2251,0,159,95056,35.00,-7.37,-4.77
208348,2087,0,151,95076,35.00,-7.45,-4.80
208370,1641,0,138,95092,35.00,-7.29,-4.74
208392,1349,0,138,95063,35.00,-7.27,-4.67
208414,1439,0,139,95018,35.00,-7.44,-4.80
208436,1444,0,147,94978,35.00,-7.34,-4.76
208458,1727,0,155,94973,35.00,-7.41,-4.72
208480,2053,0,172,94992,35.00,-7.39,-4.73
208502,2171,0,163,94878,35.00,-7.36,-4.75
208543,2449,0,168,93054,35.00,-7.38,-4.72
208565,2375,0,159,92735,35.00,-7.38,-4.74
208587,2096,0,143,92576,35.00,-7.34,-4.77
208609,1773,0,139,92556,35.00,-7.37,-4.76
208631,1483,0,133,92764,35.00,-7.37,-4.77
208653,1285,0,138,93028,35.00,-7.41,-4.77
208675,1363,0,141,93179,35.00,-7.39,-4.75
208697,1564,0,151,93249,35.00,-7.40,-4.74
208719,1881,0,159,93395,35.00,-7.39,-4.76
208741,2284,0,167,93522,35.00,-7.38,-4.70
208783,2475,0,171,93684,35.00,-7.38,-4.71
208805,2459,0,163,93693,35.00,-7.38,-4.72
208827,2077,0,149,93841,35.00,-7.38,-4.74
208849,1719,0,139,94019,35.00,-7.39,-4.71
208871,1431,0,138,94151,35.00,-7.51,-4.81
208893,1069,0,127,94186,35.00,-7.24,-4.66
208915,1819,0,153,94116,35.00,-7.46,-4.74
208937,1785,0,155,94086,35.00,-7.35,-4.79
208959,1841,0,163,94148,35.00,-7.34,-4.76
208981,2366,0,173,94243,35.00,-7.37,-4.77
209378,2025,0,167,94372,36.79,-7.38,-4.81
209406,2381,0,169,98166,35.00,-7.21,-4.91
209428,1370,0,123,98274,35.00,-7.23,-4.86
209450,1255,0,125,98103,35.00,-7.24,-4.88
209472,1119,0,131,98076,35.00,-7.30,-4.78
209494,1310,0,141,98164,35.00,-7.21,-4.89
209516,1579,0,152,97926,35.00,-7.69,-4.94
209538,1927,0,163,97552,35.00,-7.35,-4.83
209560,2681,0,179,97145,35.00,-7.33,-4.76
209582,2547,0,169,96949,35.00,-7.38,-4.79
209604,2354,0,155,97135,35.00,-7.32,-4.78
209645,2055,0,140,97557,35.00,-7.35,-4.77
209667,1802,0,135,96763,35.00,-7.63,-4.82
209689,1595,0,135,96081,35.00,-7.40,-4.73
209711,1712,0,134,95579,35.00,-7.22,-4.74
209733,1382,0,135,95432,35.00,-7.55,-4.92
209755,584,0,127,95601,35.00,-7.25,-4.76
209777,1622,0,152,95802,35.00,-7.30,-4.86
209799,2991,0,171,96061,35.00,-7.28,-4.78
209821,3163,0,167,96479,35.00,-7.36,-4.84
209843,2951,0,165,97130,35.00,-7.31,-4.74
209865,2557,0,151,97818,35.00,-7.43,-4.78
209906,2595,0,149,98731,35.00,-7.27,-4.89
209928,2643,0,140,99070,35.00,-7.59,-5.07
209950,2021,0,139,99707,35.00,-7.35,-4.96
209972,1160,0,125,99707,35.00,-7.29,-4.85
209994,1321,0,148,99707,35.00,-7.28,-4.89
210395,1756,0,163,99707,36.79,-7.54,-4.94
210427,1207,0,158,99707,35.00,-6.64,-4.67
210449,1021,0,137,99707,35.00,-7.39,-4.53
210471,861,0,147,99707,35.00,-7.42,-4.26
210493,1846,0,157,99707,35.00,-7.46,-4.63
210515,2374,0,165,99707,35.00,-7.68,-4.64
210537,0,0,149,99707,35.00,-7.25,-5.03
210559,0,0,143,99707,35.00,-6.96,-4.70
210581,0,0,141,99707,35.00,-0.84,-3.78
210603,1285,0,153,99707,35.00,-6.24,-4.57
210625,1323,0,151,99707,35.00,-6.71,-4.16
210647,0,0,95,99707,35.00,-5.21,-9.86
210688,4095,0,207,99707,35.00,-7.17,-5.99
210710,0,0,119,99707,35.00,-5.96,-7.01
210732,0,0,124,99707,35.00,-11.70,9.96
210754,1722,0,173,99707,35.00,-5.56,-7.46
210776,617,0,155,99707,35.00,-7.21,-7.83
210798,0,0,141,99707,35.00,-4.21,-7.36
210820,23,0,150,99707,35.00,-6.54,-8.08
210842,0,0,95,99707,35.00,-8.56,-6.99
210864,1032,0,119,99707,35.00,-5.14,-7.92
210886,1599,0,155,99707,35.00,-4.79,-8.97
210929,0,0,103,99707,35.00,-3.66,-9.04
210951,0,0,109,99707,35.00,-3.01,-8.40
210973,0,0,125,99707,35.00,-4.19,-8.28
210995,0,0,146,99707,35.00,-3.38,-8.04
211413,0,0,147,99707,36.27,-5.51,-7.95
211450,2153,0,159,99707,35.00,-4.85,-8.02
211472,1417,0,149,99707,35.00,-4.26,-7.74
211494,0,0,125,99707,35.00,-4.98,-7.33
211516,0,0,142,99707,35.00,-4.19,-6.84
211538,33,0,127,99707,35.00,-5.97,-6.94
211560,0,0,125,99707,35.00,-5.70,-6.24
211582,4023,0,185,99707,35.00,-5.84,-6.45
211604,4095,0,171,99707,35.00,-6.94,-5.55
211626,4095,0,152,99707,35.00,-6.31,-5.76
211648,0,0,81,99707,35.00,-7.16,-5.46
211691,0,0,115,99707,35.00,-6.46,-5.02
211713,3286,0,156,99707,35.00,-6.22,-5.05
211735,327,0,120,99707,35.00,-6.21,-5.00
211757,0,0,121,99707,35.00,-7.35,-4.79
211779,4095,0,189,99707,35.00,-6.66,-4.69
211801,4095,0,183,99707,35.00,-5.79,-4.47
211823,4095,0,173,99707,35.00,-6.25,-5.58
211845,4095,0,169,99707,35.00,-6.78,-5.86
211867,0,0,103,99707,35.00,-5.88,-5.92
211889,1198,0,149,99707,35.00,-6.62,-5.63
211931,1369,0,153,99707,35.00,-6.01,-5.50
211953,3349,0,183,99707,35.00,-6.63,-5.91
211975,4095,0,187,99707,35.00,-6.64,-6.22
211997,4095,0,182,99707,35.00,-6.40,-6.09
212429,4095,0,181,99707,36.37,-6.00,-6.14
212458,844,0,147,99707,35.00,-6.19,-6.12
212480,1049,0,137,99707,35.00,-6.05,-6.10
212502,1598,0,139,99707,35.00,-6.88,-6.26
212524,1983,0,133,99707,35.00,-7.74,-5.60
212546,1125,0,123,99707,35.00,-6.70,-5.87
212568,709,0,133,99707,35.00,-6.45,-6.00
212590,1048,0,138,99707,35.00,-6.52,-6.03
212612,1547,0,155,99707,35.00,-6.50,-6.00
212653,1949,0,159,99707,35.00,-6.19,-5.80
212675,2131,0,166,99707,35.00,-6.55,-5.91
212697,2317,0,165,99707,35.00,-6.50,-5.91
212719,2445,0,159,99707,35.00,-6.50,-5.89
212741,1774,0,143,99707,35.00,-6.47,-5.89
212763,1227,0,123,99707,35.00,-7.22,-5.57
212785,739,0,119,99707,35.00,-6.14,-5.92
212807,727,0,125,99707,35.00,-6.60,-6.05
212829,1259,0,140,99707,35.00,-6.58,-5.60
212851,1907,0,159,99707,35.00,-7.28,-5.81
212894,2351,0,165,99707,35.00,-6.48,-6.00
212916,3155,0,173,99707,35.00,-6.45,-5.86
212938,2664,0,157,99707,35.00,-6.81,-5.96
212960,2153,0,145,99707,35.00,-6.34,-5.92
212982,1913,0,135,99707,35.00,-6.23,-5.99
213703,1701,0,133,99707,36.38,-6.56,-5.97
213736,1895,0,134,99707,35.00,-6.47,-5.72
213758,2943,0,153,99707,35.00,-6.16,-5.63
213780,2730,0,143,99707,35.00,-6.83,-5.73
213802,2655,0,141,99707,35.00,-6.48,-5.70
213824,3319,0,155,99707,35.00,-6.50,-5.66
213846,749,0,117,99707,35.00,-6.39,-5.81
213868,0,0,124,99707,35.00,-6.49,-5.68
213890,78,0,140,99707,35.00,-6.52,-5.88
213912,2683,0,175,99707,35.00,-6.55,-5.73
213934,2302,0,175,99707,35.00,-6.56,-5.71
213976,2220,0,159,99707,35.00,-6.56,-5.70
213998,2491,0,157,99707,35.00,-6.54,-5.70
214020,432,0,121,99707,35.00,-6.55,-5.75
214042,106,0,121,99707,35.00,-6.48,-5.67
214064,71,0,125,99707,35.00,-6.60,-5.59
214086,185,0,141,99707,35.00,-6.29,-5.65
214108,2494,0,173,99707,35.00,-6.50,-5.80
214130,2507,0,171,99707,35.00,-6.62,-5.73
214152,3528,0,187,99707,35.00,-6.51,-5.70
214174,3187,0,181,99707,35.00,-6.54,-5.78
214196,3345,0,170,99707,35.00,-6.52,-5.79
214237,2698,0,150,99707,35.00,-6.50,-5.72
214259,2077,0,139,99707,35.00,-6.57,-5.75
214281,1870,0,135,99707,35.00,-6.61,-5.93
214303,1561,0,125,99707,35.00,-6.59,-5.63
214325,1711,0,139,99707,35.00,-6.53,-5.71
214347,2918,0,164,99707,35.00,-6.56,-5.74
214369,3821,0,182,99707,35.00,-6.58,-5.70
214391,4053,0,184,99707,35.00,-6.59,-5.72
214413,4095,0,185,99707,35.00,-6.53,-5.70
214435,2489,0,159,99707,35.00,-6.38,-5.67
214478,978,0,127,99707,35.00,-6.80,-5.71
214500,405,0,118,99707,35.00,-5.36,-5.78
214522,0,0,115,99707,35.00,-6.41,-5.56
214544,137,0,121,99707,35.00,-7.20,-5.73
214566,4095,0,199,99707,35.00,-6.46,-5.29
214588,1821,0,131,99707,35.00,-5.63,-5.25
214610,1293,0,137,99707,35.00,-6.72,-5.70
214632,0,0,133,99707,35.00,-6.60,-5.47
214654,653,0,133,99707,35.00,-6.14,-7.13
214676,0,0,117,99707,35.00,-6.78,-4.65
214718,0,0,121,99707,35.00,-7.31,-4.97
214740,4095,0,180,99707,35.00,-6.98,-6.33
214762,4095,0,173,99707,35.00,-6.41,-4.85
214784,4095,0,175,99707,35.00,-7.00,-5.36
214806,4095,0,180,99707,35.00,-5.87,-5.57
214828,4095,0,183,99707,35.00,-6.48,-5.52
214850,4095,0,178,99707,35.00,-6.70,-5.63
214872,2485,0,141,99707,35.00,-6.66,-5.57
214894,1626,0,115,99707,35.00,-6.56,-5.87
214916,4095,0,152,99707,35.00,-7.25,-5.81
214938,0,0,91,99707,35.00,-6.68,-5.66
214979,0,0,135,99707,35.00,-6.62,-5.72
215738,994,0,136,99707,36.65,-6.60,-5.60
215781,750,0,117,99707,35.00,-6.63,-5.75
215803,2251,0,151,99707,35.00,-6.62,-5.73
215825,2019,0,155,99707,35.00,-6.61,-5.74
215847,2379,0,167,99707,35.00,-6.60,-5.69
215869,1983,0,169,99707,35.00,-6.63,-5.77
215891,4095,0,201,99707,35.00,-6.63,-5.73
215913,4040,0,189,99707,35.00,-6.59,-5.77
215935,1553,0,114,99707,35.00,-6.93,-5.86
215957,59,0,108,99707,35.00,-6.56,-5.76
215979,647,0,124,99707,35.00,-6.64,-5.71
216021,1906,0,146,99376,35.00,-6.65,-5.78
216043,4095,0,179,99046,35.00,-7.16,-5.75
216065,1907,0,157,98947,35.00,-6.54,-5.71
216087,2629,0,169,98900,35.00,-6.64,-5.81
216109,2037,0,159,98930,35.00,-6.64,-5.79
216131,2257,0,166,99039,35.00,-6.61,-5.77
216153,2055,0,157,99174,35.00,-6.53,-5.79
216175,1506,0,135,99324,35.00,-6.62,-5.82
216197,1311,0,137,99461,35.00,-6.56,-5.76
216219,1239,0,135,99594,35.00,-6.65,-5.78
216241,758,0,127,99663,35.00,-6.58,-5.81
216282,1246,0,147,99674,35.00,-6.63,-5.81
216304,1455,0,149,99756,35.00,-6.62,-5.81
216326,1893,0,157,99924,35.00,-6.63,-5.82
216348,1804,0,159,99924,35.00,-6.60,-5.82
216370,2106,0,167,99924,35.00,-6.59,-5.77
216392,1929,0,149,99924,35.00,-6.56,-5.75
216414,1645,0,142,99924,35.00,-6.57,-5.80
216436,1679,0,139,99924,35.00,-6.57,-5.81
216458,1469,0,139,99924,35.00,-6.61,-5.79
216480,1305,0,135,99924,35.00,-6.62,-5.78
216502,1461,0,151,99924,35.00,-6.69,-5.79
216543,1595,0,157,99924,35.00,-6.64,-5.81
216565,1909,0,156,99924,35.00,-6.55,-5.76
216587,2269,0,171,99765,35.00,-6.59,-5.75
216609,2388,0,173,99349,35.00,-6.56,-5.80
216631,894,0,137,99127,35.00,-6.64,-5.80
216653,968,0,139,99046,35.00,-6.64,-5.80
216675,1901,0,147,99065,35.00,-6.60,-5.79
216697,2725,0,155,99343,35.00,-6.58,-5.75
216719,3293,0,159,99640,35.00,-6.47,-5.81
216741,1406,0,143,99809,35.00,-6.54,-5.80
216783,1556,0,143,99809,35.00,-6.57,-5.78
216805,2029,0,162,99809,35.00,-6.64,-5.81
216827,1197,0,149,99809,35.00,-6.62,-5.77
216849,1319,0,157,99809,35.00,-6.61,-5.78
216871,1894,0,158,99938,35.00,-6.61,-5.79
216893,1980,0,153,99848,35.00,-6.64,-5.76
216915,1643,0,141,99841,35.00,-6.59,-5.83
216937,1334,0,135,99768,35.00,-6.56,-5.80
216959,1451,0,139,99646,35.00,-6.64,-5.80
216981,1892,0,151,99501,35.00,-6.62,-5.82
217518,2263,0,169,99373,36.63,-6.62,-5.80
217548,1391,0,143,98539,35.00,-6.58,-5.80
217570,2229,0,155,98768,35.00,-6.71,-5.85
217592,1962,0,148,98951,35.00,-6.61,-5.80
217614,1625,0,134,98885,35.00,-6.62,-5.81
217636,1399,0,127,98752,35.00,-6.61,-5.83
217658,1483,0,137,98910,35.00,-6.59,-5.77
217680,1865,0,149,99280,35.00,-6.57,-5.79
217702,2219,0,156,99301,35.00,-6.59,-5.82
217724,2235,0,165,98867,35.00,-6.64,-5.81
217766,2419,0,167,98388,35.00,-6.65,-5.80
217788,1780,0,157,98420,35.00,-6.55,-5.72
217810,1747,0,146,98389,35.00,-6.60,-5.78
217832,1461,0,134,98056,35.00,-6.61,-5.83
217854,991,0,137,97586,35.00,-6.61,-5.82
217876,1132,0,131,97219,35.00,-6.63,-5.75
217898,2030,0,155,96902,35.00,-6.60,-5.71
217920,1848,0,144,96481,35.00,-6.64,-5.79
217942,2263,0,159,96069,35.00,-6.60,-5.80
217964,3320,0,183,95751,35.00,-6.64,-5.80
218536,4095,0,199,95265,36.61,-6.59,-5.83
218568,1648,0,147,95830,35.00,-6.61,-5.79
218590,1765,0,137,96175,35.00,-6.59,-5.81
218612,1465,0,137,96511,35.00,-6.58,-5.81
218634,1383,0,138,96773,35.00,-6.60,-5.82
218656,1501,0,137,96888,35.00,-6.63,-5.79
218678,1709,0,149,96980,35.00,-6.64,-5.84
218700,2149,0,159,97140,35.00,-6.62,-5.82
218722,2971,0,183,97406,35.00,-6.57,-5.85
218744,4094,0,207,97804,35.00,-6.58,-5.84
218766,4095,0,189,97880,35.00,-6.52,-5.79
218809,2585,0,157,96926,35.00,-6.69,-5.91
218831,1770,0,137,96669,35.00,-6.53,-5.87
218853,1559,0,134,95837,35.00,-6.54,-5.85
218875,1319,0,135,94805,35.00,-6.57,-5.89
218897,1213,0,133,94134,35.00,-6.62,-5.92
218919,1443,0,145,94042,35.00,-6.56,-5.89
218941,1595,0,155,94428,35.00,-6.45,-5.89
218963,1771,0,159,95048,35.00,-6.64,-5.94
218985,3025,0,183,95643,35.00,-6.89,-6.25
219553,2095,0,163,96321,36.61,-6.36,-5.79
219591,1935,0,141,96321,35.00,-6.59,-5.83
219613,0,0,111,96321,35.00,-6.60,-5.87
219635,0,0,115,99933,35.00,-6.62,-5.84
219657,1487,0,149,99858,35.00,-6.53,-5.85
219679,2557,0,167,99858,35.00,-6.56,-5.84
219701,2932,0,143,99858,35.00,-6.58,-5.84
219723,4095,0,181,99858,35.00,-6.62,-5.82
219745,621,0,144,99858,35.00,-6.39,-5.70
219767,0,0,111,99858,35.00,-6.52,-5.78
219789,2409,0,179,99858,35.00,-6.60,-5.84
219831,2639,0,157,99858,35.00,-6.59,-5.85
219853,1195,0,119,99858,35.00,-6.59,-5.81
219875,0,0,122,99858,35.00,-6.62,-5.85
219897,0,0,137,99858,35.00,-6.58,-5.83
219919,1427,0,158,99858,35.00,-6.57,-5.85
219941,3365,0,187,99858,35.00,-6.59,-5.87
219963,3291,0,181,99858,35.00,-6.57,-5.82
219985,2419,0,159,99858,35.00,-6.58,-5.87
220571,1893,0,155,99858,36.88,-6.62,-5.83
220613,1637,0,135,99858,35.00,-6.62,-5.85
220635,1717,0,141,99858,35.00,-6.61,-5.84
220657,2193,0,155,99858,35.00,-6.62,-5.86
220679,2364,0,165,99664,35.00,-6.60,-5.86
220701,2669,0,173,99144,35.00,-6.56,-5.82
220723,2695,0,175,98770,35.00,-6.61,-5.85
220745,2317,0,153,98570,35.00,-6.57,-5.83
220767,2063,0,139,98579,35.00,-6.61,-5.85
220789,1625,0,123,98717,35.00,-6.61,-5.84
220811,1402,0,123,98868,35.00,-6.58,-5.83
220833,1339,0,135,98981,35.00,-6.60,-5.84
220874,1549,0,140,99003,35.00,-6.61,-5.87
220896,1691,0,148,98935,35.00,-6.57,-5.85
220918,2005,0,156,98918,35.00,-6.56,-5.84
220940,2311,0,159,98964,35.00,-6.58,-5.84
220962,2488,0,165,99019,35.00,-6.60,-5.84
220984,2415,0,151,98985,35.00,-6.60,-5.86
221588,2156,0,148,98955,37.16,-6.55,-5.84
221619,1203,0,124,97846,35.00,-6.60,-5.84
221641,2359,0,165,97830,35.00,-6.58,-5.83
221663,2441,0,169,97869,35.00,-6.59,-5.87
221685,1933,0,148,97928,35.00,-6.59,-5.68
221707,1049,0,119,98026,35.00,-6.66,-5.83
221729,1014,0,118,98071,35.00,-6.56,-5.88
221751,1123,0,125,98066,35.00,-6.56,-5.84
221773,1271,0,140,98127,35.00,-6.60,-5.82
221795,1746,0,151,98153,35.00,-6.58,-5.81
221836,2155,0,163,97322,35.00,-6.59,-5.85
221858,2207,0,166,97094,35.00,-6.59,-5.85
221880,2556,0,172,97028,35.00,-6.63,-5.82
221902,2517,0,165,97121,35.00,-6.61,-5.87
221924,2215,0,149,97295,35.00,-6.60,-5.85
221946,1727,0,137,97489,35.00,-6.58,-5.83
221968,1551,0,133,97648,35.00,-6.56,-5.82
221990,1390,0,136,97757,35.00,-6.60,-5.87
222352,1373,0,136,97820,36.89,-6.59,-5.87
222380,1773,0,156,97083,35.00,-6.58,-5.84
222402,2344,0,155,96753,35.00,-6.58,-5.86
222424,2041,0,147,96570,35.00,-6.58,-5.85
222446,1545,0,126,96543,35.00,-6.60,-5.83
222468,1297,0,125,96604,35.00,-6.57,-5.86
222490,1311,0,125,96724,35.00,-6.59,-5.84
222512,1495,0,137,96829,35.00,-6.60,-5.84
222534,1741,0,151,96916,35.00,-6.59,-5.86
222556,2087,0,159,96984,35.00,-6.58,-5.83
222598,2509,0,169,97136,35.00,-6.63,-5.81
222620,2603,0,168,97105,35.00,-6.59,-5.83
222642,2411,0,152,97045,35.00,-6.60,-5.84
222664,2009,0,138,96999,35.00,-6.61,-5.84
222686,1647,0,122,96998,35.00,-6.57,-5.87
222708,1392,0,123,96995,35.00,-6.60,-5.85
222730,1379,0,126,96972,35.00,-6.61,-5.81
222752,1549,0,137,96977,35.00,-6.62,-5.85
222774,1845,0,152,97032,35.00,-6.59,-5.88
222796,2197,0,163,97156,35.00,-6.57,-5.87
222818,2341,0,165,97311,35.00,-6.61,-5.87
222859,2303,0,164,98121,35.00,-6.59,-5.87
222881,2628,0,165,98313,35.00,-6.59,-5.93
222903,2283,0,154,98275,35.00,-6.56,-5.83
222925,1943,0,142,97861,35.00,-6.55,-5.81
222947,1268,0,124,97133,35.00,-6.61,-5.87
222969,1066,0,123,96313,35.00,-6.61,-5.86
222991,1177,0,137,95852,35.00,-6.60,-5.84
223369,1587,0,146,95710,36.70,-6.59,-5.87
223400,1277,0,132,98656,35.00,-6.56,-5.85
223422,1980,0,137,99029,35.00,-6.58,-5.89
223444,1576,0,133,99312,35.00,-6.59,-5.84
223466,1577,0,125,99508,35.00,-6.60,-5.87
223488,1251,0,127,99623,35.00,-6.62,-5.84
223510,1396,0,139,99390,35.00,-6.59,-5.86
223532,1725,0,149,98870,35.00,-6.60,-5.88
223554,1975,0,157,98347,35.00,-6.59,-5.85
223576,2056,0,162,97996,35.00,-6.55,-5.83
223598,2450,0,163,97864,35.00,-6.58,-5.83
223620,2507,0,155,97857,35.00,-6.60,-5.90
223661,1849,0,131,97142,35.00,-6.60,-5.85
223683,1846,0,124,96730,35.00,-6.62,-5.90
223705,1435,0,121,96628,35.00,-6.61,-5.88
223727,1715,0,132,96872,35.00,-6.66,-5.86
223749,1876,0,141,97366,35.00,-6.58,-5.86
223771,1943,0,151,98028,35.00,-6.60,-5.81
223793,2269,0,161,98785,35.00,-6.59,-5.86
223815,2447,0,171,99432,35.00,-6.58,-5.83
223837,2833,0,176,99943,35.00,-6.58,-5.84
223859,2263,0,158,99943,35.00,-6.62,-5.86
223902,1972,0,149,99815,35.00,-6.59,-5.86
223924,1640,0,125,99347,35.00,-6.56,-5.85
223946,1525,0,134,98943,35.00,-6.56,-5.86
223968,1447,0,139,98694,35.00,-6.58,-5.86
223990,1467,0,142,98601,35.00,-6.59,-5.84
224386,1897,0,153,98600,36.89,-6.56,-5.84
224423,1396,0,138,97674,35.00,-6.61,-5.87
224445,1287,0,125,97674,35.00,-6.53,-5.84
224467,1319,0,127,97611,35.00,-6.58,-5.87
224489,1431,0,138,97527,35.00,-6.59,-5.85
224511,1803,0,152,97475,35.00,-6.61,-5.85
224533,2073,0,159,97425,35.00,-6.60,-5.85
224555,2441,0,167,97272,35.00,-6.60,-5.87
224577,2418,0,165,97132,35.00,-6.56,-5.85
224599,2261,0,153,97070,35.00,-6.61,-5.88
224621,1845,0,137,97095,35.00,-6.59,-5.84
224664,1431,0,123,97019,35.00,-6.62,-5.86
224686,1053,0,117,96583,35.00,-6.62,-5.87
224708,1221,0,133,96322,35.00,-6.61,-5.83
224730,1534,0,143,96368,35.00,-6.58,-5.84
224752,2011,0,157,96349,35.00,-6.61,-5.82
224774,2509,0,169,96249,35.00,-6.60,-5.88
224796,2476,0,164,96448,35.00,-6.60,-5.87
224818,2601,0,165,96836,35.00,-6.63,-5.83
224840,2184,0,151,97135,35.00,-6.60,-5.84
224862,1763,0,137,97268,35.00,-6.56,-5.85
224904,1421,0,136,97277,35.00,-6.58,-5.87
224926,1334,0,133,97355,35.00,-6.61,-5.87
224948,1481,0,139,97361,35.00,-6.59,-5.86
224970,1845,0,151,97268,35.00,-6.61,-5.85
224992,2095,0,165,97070,35.00,-6.60,-5.89
225404,2393,0,167,96959,36.96,-6.62,-5.84
225445,1352,0,132,96891,35.00,-6.60,-5.86
225467,1423,0,135,96785,35.00,-6.60,-5.88
225489,1774,0,148,96768,35.00,-6.60,-5.84
225511,2102,0,159,96920,35.00,-6.58,-5.94
225533,2215,0,159,97200,35.00,-6.57,-5.87
225555,2509,0,165,97455,35.00,-6.57,-5.85
225577,2231,0,151,97559,35.00,-6.60,-5.88
225599,1973,0,141,97716,35.00,-6.58,-5.84
225621,1573,0,124,97952,35.00,-6.56,-5.85
225643,1288,0,123,98167,35.00,-6.61,-5.86
225665,1255,0,124,98442,35.00,-6.63,-5.84
225706,1307,0,137,99767,35.00,-6.60,-5.90
225728,1709,0,141,99767,35.00,-6.57,-5.82
225750,2173,0,160,99767,35.00,-6.63,-5.85
225772,2261,0,165,99767,35.00,-6.62,-5.85
225794,2527,0,171,99767,35.00,-6.65,-5.89
225816,2537,0,166,99767,35.00,-6.63,-5.86
225838,2095,0,147,99767,35.00,-6.59,-5.84
225860,1725,0,138,99767,35.00,-6.62,-5.90
225882,1428,0,135,99767,35.00,-6.57,-5.88
225904,1318,0,125,99767,35.00,-6.59,-5.85
225926,1395,0,136,99767,35.00,-6.60,-5.85
225967,1772,0,152,99363,35.00,-6.61,-5.86
225989,1897,0,155,98886,35.00,-6.60,-5.86
226421,2175,0,163,98501,36.69,-6.62,-5.84
226450,1243,0,141,98501,35.00,-6.61,-5.91
226472,2323,0,181,98501,35.00,-6.59,-5.89
226494,2787,0,186,98501,35.00,-6.61,-5.93
226516,2531,0,175,98501,35.00,-6.63,-5.89
226538,2215,0,163,98501,35.00,-6.58,-5.94
226560,1687,0,152,98501,35.00,-6.60,-5.93
226582,1407,0,152,98501,35.00,-6.57,-5.90
226604,1253,0,157,98501,35.00,-6.60,-5.88
226626,1554,0,155,98501,35.00,-6.56,-5.87
226669,2123,0,165,98501,35.00,-6.61,-5.90
226691,2425,0,171,98501,35.00,-6.58,-5.91
226713,2074,0,163,98501,35.00,-6.56,-5.90
226735,2235,0,163,98501,35.00,-6.57,-5.90
226757,1917,0,141,98501,35.00,-6.58,-5.89
226779,1582,0,133,98501,35.00,-6.59,-5.94
226801,1308,0,124,98501,35.00,-6.62,-5.89
226823,1193,0,123,98501,35.00,-6.58,-5.90
226845,1433,0,138,98501,35.00,-6.57,-5.89
226867,1637,0,151,98501,35.00,-6.62,-5.87
226909,2310,0,171,98501,35.00,-6.56,-5.90
226931,2003,0,163,98501,35.00,-6.61,-5.93
226953,2351,0,171,98501,35.00,-6.60,-5.91
226975,2284,0,158,98501,35.00,-6.58,-5.88
226997,1926,0,141,98501,35.00,-6.61,-5.94
227439,1663,0,134,98501,36.46,-6.58,-5.88
227471,1461,0,121,98501,35.00,-6.57,-5.92
227493,2348,0,156,98501,35.00,-6.63,-5.91
227515,2557,0,149,98501,35.00,-6.58,-5.89
227537,1581,0,133,98501,35.00,-6.61,-5.88
227559,825,0,109,98501,35.00,-6.58,-5.90
227581,1017,0,121,98501,35.00,-6.59,-5.90
227603,1223,0,146,98501,35.00,-6.56,-5.90
227625,2021,0,159,98501,35.00,-6.60,-5.93
227647,2084,0,163,98501,35.00,-6.56,-5.88
227669,2310,0,171,98501,35.00,-6.65,-5.91
227711,2045,0,163,98501,35.00,-6.61,-5.91
227733,2083,0,153,98501,35.00,-6.57,-5.92
227755,1843,0,142,98501,35.00,-6.61,-5.90
227777,1593,0,134,98501,35.00,-6.58,-5.89
227799,1379,0,126,98501,35.00,-6.59,-5.87
227821,1341,0,127,98501,35.00,-6.62,-5.91
227843,1416,0,139,98501,35.00,-6.61,-5.92
227865,1705,0,150,98501,35.00,-6.58,-5.85
227887,2014,0,158,98501,35.00,-6.57,-5.87
227909,2291,0,167,98501,35.00,-6.59,-5.89
227931,2523,0,167,98501,35.00,-6.58,-5.87
227972,2367,0,157,98501,35.00,-6.57,-5.88
227994,2387,0,155,98501,35.00,-6.60,-5.87
228711,1879,0,145,98501,36.87,-6.55,-5.87
228735,2218,0,148,99164,35.00,-6.60,-5.87
228757,1498,0,126,99401,35.00,-6.58,-5.90
228779,1299,0,125,99539,35.00,-6.58,-5.91
228801,1365,0,137,99618,35.00,-6.59,-5.90
228823,1595,0,147,99745,35.00,-6.60,-5.88
228845,1951,0,159,99811,35.00,-6.59,-5.90
228867,2301,0,167,99799,35.00,-6.59,-5.88
228889,2519,0,167,99743,35.00,-6.62,-5.87
228911,2519,0,163,99711,35.00,-6.60,-5.87
228933,2197,0,147,99606,35.00,-6.61,-5.87
228974,1768,0,135,99413,35.00,-6.60,-5.88
228996,1515,0,124,99573,35.00,-6.58,-5.89
229728,1295,0,124,99843,36.62,-6.58,-5.89
229757,2450,0,158,99843,35.00,-6.59,-5.92
229779,1273,0,135,99843,35.00,-6.57,-5.89
229801,1566,0,142,99843,35.00,-6.60,-5.93
229823,1884,0,154,99940,35.00,-6.56,-5.88
229845,2173,0,164,99577,35.00,-6.61,-5.93
229867,2457,0,167,99423,35.00,-6.59,-5.92
229889,2441,0,163,99588,35.00,-6.60,-5.89
229911,2280,0,152,99980,35.00,-6.62,-5.88
229933,1906,0,139,99980,35.00,-6.56,-5.88
229955,1511,0,123,99980,35.00,-6.61,-5.89
229997,1275,0,123,99980,35.00,-6.59,-5.86
230746,1255,0,131,99980,36.51,-6.59,-5.91
230779,2365,0,163,98982,35.00,-6.56,-5.93
230801,1695,0,147,98978,35.00,-6.59,-5.89
230823,2133,0,163,98972,35.00,-6.57,-5.92
230845,2393,0,160,98952,35.00,-6.60,-5.89
230867,2549,0,163,99046,35.00,-6.60,-5.91
230889,2419,0,152,99191,35.00,-6.58,-5.88
230911,2085,0,139,99320,35.00,-6.55,-5.89
230933,1671,0,133,99311,35.00,-6.59,-5.88
230955,1384,0,123,99031,35.00,-6.62,-5.94
230977,1333,0,127,98600,35.00,-6.60,-5.92
230999,1465,0,141,98251,35.00,-6.61,-5.98
231040,1833,0,153,98164,35.00,-6.58,-5.87
231062,1935,0,152,98571,35.00,-6.62,-5.87
231084,2336,0,170,99112,35.00,-6.55,-5.90
231106,2485,0,166,99585,35.00,-6.57,-5.90
231128,2357,0,151,99585,35.00,-6.61,-5.89
231150,2125,0,147,99585,35.00,-6.57,-5.89
231172,1640,0,121,99585,35.00,-6.62,-5.88
231194,1462,0,117,99585,35.00,-6.56,-5.90
231216,1387,0,111,99585,35.00,-6.55,-5.89
231238,1151,0,107,99585,35.00,-6.57,-5.92
231280,1547,0,119,99585,35.00,-6.60,-5.93
231302,1907,0,144,99585,35.00,-6.56,-5.88
231324,2355,0,157,99585,35.00,-6.56,-5.89
231346,2685,0,173,99585,35.00,-6.60,-5.92
231368,2348,0,167,99585,35.00,-6.48,-5.92
231390,2520,0,178,99585,35.00,-6.59,-5.85
231412,1642,0,150,99585,35.00,-6.58,-5.90
231434,1597,0,151,99585,35.00,-6.58,-5.94
231456,1287,0,139,99585,35.00,-6.62,-5.91
231478,1609,0,147,99585,35.00,-6.56,-5.92
231500,1767,0,151,99585,35.00,-6.62,-5.90
231541,2059,0,157,99585,35.00,-6.55,-5.92
231563,2175,0,162,99585,35.00,-6.62,-5.88
231585,2579,0,167,99585,35.00,-6.59,-5.87
231607,2147,0,147,99585,35.00,-6.56,-5.88
231629,2053,0,135,99585,35.00,-6.61,-5.90
231651,1499,0,107,99585,35.00,-6.60,-5.92
231673,1381,0,99,99585,35.00,-6.56,-5.91
231695,1007,0,104,99585,35.00,-6.54,-5.93
231717,1187,0,121,99585,35.00,-6.62,-5.87
231739,1613,0,139,99585,35.00,-6.57,-5.95
231761,1854,0,158,99585,35.00,-6.58,-5.91
231802,2303,0,175,99585,35.00,-6.55,-5.88
231824,2835,0,197,99585,35.00,-6.56,-5.80
231846,2751,0,188,99585,35.00,-6.59,-5.89
231868,2541,0,171,99585,35.00,-6.61,-5.91
231890,2199,0,163,99585,35.00,-6.57,-5.88
231912,1997,0,149,99585,35.00,-6.60,-5.88
231934,1513,0,135,99585,35.00,-6.59,-5.93
231956,1359,0,133,99585,35.00,-6.60,-5.92
231978,1509,0,141,99585,35.00,-6.60,-5.90
232526,1879,0,156,99585,37.49,-6.61,-5.87
232564,2379,0,156,96954,35.00,-6.60,-5.88
232586,2517,0,156,96876,35.00,-6.62,-5.88
232608,2183,0,143,96654,35.00,-6.59,-5.92
232630,1835,0,135,96201,35.00,-6.60,-5.89
232652,1451,0,125,95765,35.00,-6.57,-5.91
232674,1435,0,132,95415,35.00,-6.58,-5.89
232696,1561,0,140,95287,35.00,-6.52,-5.93
232718,2011,0,149,95351,35.00,-6.54,-5.85
232740,2484,0,167,95538,35.00,-6.56,-5.90
232762,2572,0,166,95719,35.00,-6.56,-5.82
232804,2578,0,165,96481,35.00,-6.61,-5.89
232826,2391,0,151,96852,35.00,-6.61,-5.91
232848,1884,0,137,97122,35.00,-6.59,-5.91
232870,1655,0,127,97306,35.00,-6.63,-5.89
232892,1415,0,123,97457,35.00,-6.57,-5.87
232914,1237,0,125,97440,35.00,-6.58,-5.90
232936,1415,0,139,97199,35.00,-6.56,-5.93
232958,1763,0,151,96829,35.00,-6.55,-5.87
232980,2394,0,167,96516,35.00,-6.59,-5.87
233544,2583,0,171,96423,36.71,-6.56,-5.90
233586,3319,0,201,97741,35.00,-6.46,-5.92
233608,4095,0,159,97768,35.00,-6.66,-6.07
233630,4095,0,165,97780,35.00,-6.64,-5.99
233652,4095,0,169,97827,35.00,-6.54,-5.93
233674,2287,0,147,97951,35.00,-6.55,-5.96
233696,0,0,137,98137,35.00,-6.64,-6.04
233718,2147,0,184,98258,35.00,-6.55,-6.00
233740,4095,0,191,98240,35.00,-6.61,-6.14
233762,703,0,122,98416,35.00,-6.59,-5.99
233784,229,0,135,98698,35.00,-6.55,-5.99
233806,4095,0,185,98860,35.00,-6.51,-6.02
233847,758,0,93,97924,35.00,-6.54,-5.99
233869,0,0,125,97617,35.00,-6.53,-6.05
233891,37,0,127,97492,35.00,-6.58,-5.94
233913,752,0,121,97564,35.00,-6.55,-5.94
233935,1501,0,149,97826,35.00,-6.67,-5.98
233957,4095,0,192,98078,35.00,-6.78,-5.92
233979,3228,0,175,98275,35.00,-6.54,-6.01
234562,2398,0,157,98506,36.60,-6.58,-5.93
234593,4095,0,180,98506,35.00,-6.49,-5.92
234615,4095,0,189,98506,35.00,-6.57,-5.98
234637,4095,0,199,98506,35.00,-6.52,-5.93
234659,4095,0,205,98506,35.00,-6.50,-6.02
234681,0,0,140,98506,35.00,-6.56,-5.99
234703,0,0,147,98506,35.00,-6.61,-6.00
234725,0,0,137,98506,35.00,-6.59,-6.01
234747,0,0,125,98506,35.00,-6.56,-6.04
234789,3219,0,170,98506,35.00,-6.52,-6.03
234811,1351,0,127,98506,35.00,-6.58,-6.07
234833,2237,0,158,98506,35.00,-6.59,-5.98
234855,2589,0,172,98506,35.00,-6.54,-5.99
234877,4095,0,201,98506,35.00,-6.59,-6.01
234899,4095,0,197,98506,35.00,-6.59,-5.93
234921,4095,0,191,98506,35.00,-6.59,-6.00
234943,3015,0,145,98506,35.00,-6.60,-5.91
234965,1714,0,137,98506,35.00,-6.67,-5.83
234987,0,0,111,98506,35.00,-6.57,-5.90
235579,0,0,121,98993,36.62,-6.55,-5.86
235611,3720,0,214,98012,35.00,-6.62,-5.88
235633,2632,0,152,97996,35.00,-6.63,-5.91
235655,0,0,133,97665,35.00,-6.52,-5.98
235677,0,0,142,97177,35.00,-6.62,-5.90
235699,0,0,135,96687,35.00,-6.61,-5.89
235721,4095,0,181,96299,35.00,-6.52,-5.92
235743,4089,0,159,96062,35.00,-6.57,-5.93
235765,3451,0,143,96121,35.00,-6.48,-5.86
235787,2111,0,123,96358,35.00,-6.54,-5.90
235809,1653,0,119,96472,35.00,-6.61,-5.88
235831,1006,0,121,96531,35.00,-6.58,-5.91
235872,1575,0,138,96762,35.00,-6.56,-5.89
235894,880,0,137,96722,35.00,-6.58,-5.87
235916,1563,0,157,96620,35.00,-6.58,-5.93
235938,2401,0,169,96496,35.00,-6.61,-5.92
235960,3788,0,179,96364,35.00,-6.57,-5.90
235982,2034,0,136,96223,35.00,-6.63,-5.85
236344,2895,0,143,95989,36.28,-6.40,-5.69
236373,0,0,137,93227,35.00,-6.62,-5.90
236395,0,0,147,93454,35.00,-6.73,-5.81
236417,0,0,143,93763,35.00,-6.46,-6.05
236439,0,0,137,94109,35.00,-6.65,-5.87
236461,187,0,122,94430,35.00,-6.57,-5.90
236483,0,0,123,94439,35.00,-6.57,-5.92
236505,0,0,133,94411,35.00,-6.60,-5.97
236527,0,0,119,94304,35.00,-6.62,-5.98
236549,0,0,125,94146,35.00,-6.59,-5.92
236571,0,0,137,94112,35.00,-6.59,-5.87
236593,1532,0,166,94177,35.00,-6.59,-5.98
236634,4095,0,187,94307,35.00,-6.53,-6.01
236656,4095,0,181,94254,35.00,-6.62,-6.03
236678,4095,0,174,94261,35.00,-6.52,-6.05
236700,4095,0,168,94373,35.00,-6.18,-6.00
236722,4095,0,155,94526,35.00,-6.43,-6.14
236744,4095,0,153,94749,35.00,-6.73,-6.02
236766,0,0,85,94957,35.00,-6.64,-6.05
236788,0,0,125,95211,35.00,-6.40,-6.04
236810,0,0,139,95438,35.00,-6.59,-5.99
236832,0,0,149,95510,35.00,-6.57,-5.98
236875,0,0,147,94856,35.00,-6.59,-5.83
236897,0,0,137,94685,35.00,-6.57,-5.90
236919,2075,0,167,94728,35.00,-6.73,-5.94
236941,4095,0,169,94135,35.00,-6.54,-5.99
236963,4095,0,165,92117,35.00,-6.63,-5.99
236985,2951,0,139,90469,35.00,-6.63,-6.05
237360,0,0,114,89852,36.36,-6.57,-5.89
237396,909,0,119,89852,35.00,-6.53,-5.89
237418,1241,0,143,89852,35.00,-6.60,-5.88
237440,1163,0,147,89852,35.00,-6.57,-5.86
237462,1959,0,146,89852,35.00,-6.56,-5.93
237484,1963,0,133,89852,35.00,-6.56,-5.93
237506,2059,0,139,89852,35.00,-6.58,-5.88
237528,2025,0,139,89852,35.00,-6.60,-5.90
237550,1647,0,146,89852,35.00,-6.55,-5.94
237572,2073,0,159,89852,35.00,-6.62,-5.88
237594,139,0,133,89852,35.00,-6.56,-5.91
237637,4095,0,201,89852,35.00,-6.63,-5.90
237659,4095,0,169,89852,35.00,-6.54,-5.89
237681,3893,0,159,89852,35.00,-6.61,-5.89
237703,2999,0,143,89852,35.00,-6.54,-5.88
237725,1899,0,123,89852,35.00,-6.61,-5.87
237747,1651,0,137,89852,35.00,-6.62,-5.90
237769,1563,0,143,89852,35.00,-6.59,-5.90
237791,2079,0,163,89852,35.00,-6.57,-5.89
237813,2792,0,179,89852,35.00,-6.59,-5.87
237835,3079,0,170,89852,35.00,-6.61,-5.88
237877,3177,0,167,89852,35.00,-6.53,-5.96
237899,2757,0,155,89852,35.00,-6.58,-5.89
237921,2381,0,142,89852,35.00,-6.56,-5.88
237943,1965,0,135,89852,35.00,-6.56,-5.89
237965,1287,0,119,89852,35.00,-6.56,-5.87
237987,1895,0,143,89852,35.00,-6.56,-5.92
238377,1369,0,125,89852,36.42,-6.56,-5.91
238419,2569,0,151,99855,35.00,-6.69,-5.92
238441,2893,0,147,99722,35.00,-6.66,-5.93
238463,2789,0,149,99573,35.00,-6.57,-5.93
238485,1453,0,135,99468,35.00,-6.61,-5.89
238507,965,0,126,99443,35.00,-6.60,-5.92
238529,1119,0,149,99418,35.00,-6.58,-5.91
238551,1187,0,151,99380,35.00,-6.59,-5.89
238573,1452,0,157,99310,35.00,-6.56,-5.92
238595,1913,0,154,99015,35.00,-6.59,-5.90
238617,4095,0,191,98445,35.00,-6.63,-5.87
238659,4095,0,170,97593,35.00,-6.62,-5.88
238681,24,0,95,97616,35.00,-6.60,-5.89
238703,1432,0,151,97726,35.00,-6.56,-5.93
238725,0,0,109,97913,35.00,-6.58,-5.89
238747,0,0,125,98111,35.00,-6.56,-5.90
238769,0,0,134,98268,35.00,-6.64,-5.92
238791,0,0,136,98361,35.00,-6.61,-5.88
238813,1343,0,166,98411,35.00,-6.61,-5.86
238835,2183,0,153,98391,35.00,-6.56,-5.87
238857,2389,0,148,98380,35.00,-6.61,-5.93
238879,653,0,109,98347,35.00,-6.59,-5.94
238920,347,0,119,98511,35.00,-6.66,-6.06
238942,824,0,117,98643,35.00,-6.65,-5.88
238964,1021,0,119,98825,35.00,-6.61,-5.85
238986,1079,0,137,99063,35.00,-6.59,-5.90
239394,2745,0,168,99248,36.69,-6.61,-5.88
239422,1083,0,147,99421,35.00,-6.62,-5.86
239444,716,0,120,99517,35.00,-6.60,-5.87
239466,1385,0,141,99597,35.00,-6.69,-5.92
239488,2597,0,167,99637,35.00,-6.60,-5.87
239510,3567,0,182,99514,35.00,-6.59,-5.85
239532,4095,0,186,99421,35.00,-6.61,-5.89
239554,4095,0,181,99244,35.00,-6.60,-5.86
239576,4095,0,189,99117,35.00,-6.66,-5.87
239598,4095,0,173,99074,35.00,-6.54,-5.85
239620,3485,0,157,99061,35.00,-6.61,-5.87
239662,4095,0,173,98902,35.00,-6.61,-5.90
239684,4095,0,173,98785,35.00,-6.58,-5.76
239706,4095,0,180,98699,35.00,-6.57,-5.80
239728,3165,0,159,98588,35.00,-6.60,-5.85
239750,1629,0,159,98488,35.00,-6.65,-5.79
239772,1302,0,151,98386,35.00,-6.72,-5.85
239794,1828,0,157,98322,35.00,-6.66,-5.83
239816,2173,0,153,98337,35.00,-6.70,-5.83
239838,1304,0,133,98361,35.00,-6.66,-5.86
239860,1367,0,133,98303,35.00,-6.71,-5.79
239903,1230,0,125,97138,35.00,-6.59,-5.87
239925,2941,0,165,96779,35.00,-6.65,-5.77
239947,3036,0,165,96485,35.00,-6.60,-5.81
239969,2373,0,157,96370,35.00,-6.63,-5.83
239991,2687,0,171,96427,35.00,-6.63,-5.84
240412,2413,0,166,96507,36.15,-6.65,-5.81
240444,201,0,135,95695,35.00,-6.64,-5.82
240466,0,0,141,95453,35.00,-6.61,-5.79
240488,0,0,148,95056,35.00,-6.67,-5.76
240510,0,0,147,94636,35.00,-6.62,-5.80
240532,0,0,137,94362,35.00,-6.64,-5.81
240554,0,0,126,94296,35.00,-6.66,-5.81
240576,937,0,142,94347,35.00,-6.61,-5.82
240598,717,0,121,94419,35.00,-6.64,-5.83
240620,787,0,119,94556,35.00,-6.61,-5.76
240642,845,0,123,94692,35.00,-6.61,-5.84
240685,760,0,133,94736,35.00,-6.63,-5.80
240707,2456,0,165,94593,35.00,-6.63,-5.81
240729,0,0,123,94411,35.00,-6.63,-5.81
240751,0,0,125,94195,35.00,-6.65,-5.81
240773,2781,0,183,94000,35.00,-6.65,-5.79
240795,3917,0,171,93851,35.00,-6.62,-5.84
240817,1479,0,120,93783,35.00,-6.68,-5.83
240839,0,0,116,93770,35.00,-6.66,-5.78
240861,3963,0,173,93763,35.00,-6.68,-5.83
240883,465,0,122,93779,35.00,-6.61,-5.78
240925,3359,0,187,93992,35.00,-6.65,-5.79
240947,3069,0,163,93961,35.00,-6.66,-5.80
240969,3508,0,188,93912,35.00,-6.64,-5.80
240991,3785,0,180,93949,35.00,-6.61,-5.79
241430,2892,0,157,93998,36.69,-6.71,-5.79
241467,2166,0,153,92662,35.00,-6.68,-5.72
241489,2199,0,165,92804,35.00,-6.67,-5.76
241511,2119,0,165,92928,35.00,-6.65,-5.78
241533,1529,0,143,93002,35.00,-6.66,-5.86
241555,1491,0,135,93007,35.00,-6.67,-5.75
241577,723,0,121,92992,35.00,-6.68,-5.76
241599,1207,0,127,93009,35.00,-6.68,-5.80
241621,1429,0,139,92997,35.00,-6.67,-5.77
241643,1727,0,151,93031,35.00,-6.68,-5.77
241665,2181,0,163,92810,35.00,-6.62,-5.77
241707,2751,0,175,91927,35.00,-6.65,-5.80
241729,2909,0,174,91756,35.00,-6.65,-5.79
241751,2495,0,165,91814,35.00,-6.67,-5.79
241773,1895,0,143,91958,35.00,-6.67,-5.74
241795,1405,0,135,92083,35.00,-6.63,-5.74
241817,1229,0,137,92131,35.00,-6.64,-5.81
241839,1285,0,139,92062,35.00,-6.67,-5.75
241861,1443,0,147,91943,35.00,-6.63,-5.80
241883,2164,0,160,91735,35.00,-6.68,-5.78
241905,2327,0,165,91500,35.00,-6.65,-5.78
241927,2327,0,165,91406,35.00,-6.67,-5.80
241968,1959,0,157,91101,35.00,-6.66,-5.81
241990,1229,0,147,91042,35.00,-6.63,-5.81
242702,1949,0,155,91112,36.74,-6.63,-5.79
242730,1928,0,169,91926,35.00,-6.64,-5.79
242752,1955,0,142,91994,35.00,-6.63,-5.77
242774,393,0,117,92033,35.00,-6.64,-5.75
242796,581,0,125,92059,35.00,-6.65,-5.82
242818,0,0,126,92090,35.00,-6.62,-5.80
242840,0,0,139,92102,35.00,-6.75,-5.81
242862,2381,0,181,92116,35.00,-6.67,-5.74
242884,3588,0,190,92198,35.00,-6.67,-5.85
242906,1973,0,154,92217,35.00,-6.61,-5.75
242928,1583,0,155,91929,35.00,-6.67,-5.80
242971,2043,0,156,91278,35.00,-6.63,-5.80
242993,1669,0,141,91259,35.00,-6.57,-5.73
243719,1433,0,136,91332,36.59,-6.67,-5.80
243752,1316,0,143,93134,35.00,-6.67,-5.82
243774,1011,0,124,93236,35.00,-6.62,-5.81
243796,885,0,127,93324,35.00,-6.67,-5.81
243818,1243,0,138,93377,35.00,-6.69,-5.80
243840,1933,0,153,93310,35.00,-6.61,-5.80
243862,1941,0,157,93181,35.00,-6.64,-5.79
243884,2399,0,172,93158,35.00,-6.64,-5.77
243906,2201,0,165,93267,35.00,-6.64,-5.76
243928,2261,0,153,93255,35.00,-6.61,-5.78
243950,1866,0,137,93156,35.00,-6.66,-5.78
243972,932,0,119,93323,35.00,-6.62,-5.79
244737,681,0,123,95548,36.59,-6.64,-5.77
244775,3913,0,204,99028,35.00,-6.73,-5.68
244797,4095,0,184,99478,35.00,-6.69,-5.66
244819,4095,0,191,99478,35.00,-6.66,-5.67
244841,4095,0,199,99478,35.00,-6.66,-5.71
244863,4095,0,200,99478,35.00,-6.76,-5.71
244885,4095,0,185,99478,35.00,-6.71,-5.68
244907,0,0,119,99478,35.00,-6.68,-5.76
244929,0,0,143,99478,35.00,-6.75,-5.74
244951,0,0,140,99478,35.00,-6.70,-5.71
244973,0,0,139,99478,35.00,-6.70,-5.68
245755,0,0,127,99478,36.58,-6.67,-5.68
245798,54,0,121,99478,35.00,-6.62,-5.77
245820,2056,0,165,99478,35.00,-6.68,-5.74
245842,2463,0,155,99478,35.00,-6.65,-5.73
245864,1193,0,125,99478,35.00,-6.63,-5.81
245886,2019,0,137,99478,35.00,-6.64,-5.77
245908,1563,0,122,99478,35.00,-6.61,-5.75
245930,227,0,105,99478,35.00,-6.65,-5.78
245952,531,0,117,99478,35.00,-6.64,-5.76
245974,2037,0,157,99478,35.00,-6.65,-5.72
245996,1494,0,149,99478,35.00,-6.65,-5.75
246038,1391,0,158,99478,35.00,-6.67,-5.75
246060,2071,0,173,99478,35.00,-6.63,-5.73
246082,2270,0,173,99478,35.00,-6.66,-5.79
246104,1221,0,163,99478,35.00,-6.61,-5.74
246126,485,0,163,99478,35.00,-6.62,-5.76
246148,973,0,169,99478,35.00,-6.65,-5.73
246170,0,0,165,99478,35.00,-6.58,-5.76
246192,2012,0,175,99478,35.00,-6.66,-5.74
246214,1865,0,165,99478,35.00,-6.63,-5.74
246236,2427,0,174,99478,35.00,-6.64,-5.76
246258,3205,0,187,99478,35.00,-6.62,-5.76
246299,3763,0,197,99478,35.00,-6.67,-5.76
246321,1802,0,153,99478,35.00,-6.69,-5.74
246343,1491,0,151,99478,35.00,-6.69,-5.75
246365,4095,0,201,99478,35.00,-6.63,-5.74
246387,4095,0,183,99478,35.00,-6.66,-5.72
246409,4095,0,187,99478,35.00,-6.66,-5.75
246431,4095,0,174,99478,35.00,-6.68,-5.74
246453,4095,0,173,99478,35.00,-6.64,-5.74
246475,4095,0,181,99478,35.00,-6.65,-5.73
246497,2729,0,169,99478,35.00,-6.67,-5.72
246539,2981,0,180,99478,35.00,-6.62,-5.72
246561,2667,0,171,99478,35.00,-6.68,-5.73
246583,3431,0,171,99478,35.00,-6.65,-5.72
246605,533,0,106,99478,35.00,-6.64,-5.78
246627,1255,0,124,99478,35.00,-6.70,-5.75
246649,1767,0,135,99478,35.00,-6.66,-5.75
246671,2206,0,151,99478,35.00,-6.65,-5.79
246693,1625,0,137,99478,35.00,-6.65,-5.73
246715,1495,0,148,99478,35.00,-6.66,-5.72
246737,1019,0,151,99478,35.00,-6.66,-5.76
246759,1003,0,149,99478,35.00,-6.67,-5.73
246800,1747,0,155,99478,35.00,-6.64,-5.72
246822,1742,0,143,99478,35.00,-6.63,-5.74
246844,1548,0,141,99478,35.00,-6.65,-5.73
246866,1533,0,135,99478,35.00,-6.73,-5.74
246888,1485,0,132,99478,35.00,-6.65,-5.73
246910,1583,0,123,99478,35.00,-6.72,-5.71
246932,655,0,117,99478,35.00,-6.68,-5.76
246954,206,0,121,99478,35.00,-6.64,-5.69
246976,690,0,146,99478,35.00,-6.67,-5.71
246998,1801,0,167,99478,35.00,-6.64,-5.72
247041,2519,0,174,99478,35.00,-6.68,-5.70
247063,3149,0,163,99478,35.00,-6.67,-5.71
247085,2805,0,151,99478,35.00,-6.63,-5.70
247107,2539,0,141,99478,35.00,-6.65,-5.70
247129,1199,0,115,99478,35.00,-6.67,-5.73
247151,954,0,119,99478,35.00,-6.67,-5.64
247173,1741,0,143,99478,35.00,-6.70,-5.70
247195,2341,0,159,99478,35.00,-6.65,-5.70
247217,3062,0,180,99478,35.00,-6.68,-5.71
247239,3835,0,183,99478,35.00,-6.70,-5.73
247281,3771,0,181,99478,35.00,-6.66,-5.68
247303,4045,0,167,99478,35.00,-6.70,-5.70
247325,4084,0,166,99478,35.00,-6.67,-5.68
247347,2980,0,151,99478,35.00,-6.65,-5.73
247369,2296,0,139,99478,35.00,-6.69,-5.75
247391,1591,0,135,99478,35.00,-6.65,-5.67
247413,1063,0,135,99478,35.00,-6.72,-5.73
247435,1683,0,153,99478,35.00,-6.66,-5.72
247457,2707,0,179,99478,35.00,-6.73,-5.71
247479,3199,0,179,99478,35.00,-6.66,-5.70
247501,3091,0,172,99478,35.00,-6.65,-5.70
247542,2585,0,155,99478,35.00,-6.67,-5.72
247564,1132,0,135,99478,35.00,-6.71,-5.69
247586,535,0,118,99478,35.00,-6.63,-5.71
247608,1291,0,119,99478,35.00,-6.69,-5.71
247630,2297,0,142,99478,35.00,-6.66,-5.72
247652,2157,0,149,99478,35.00,-6.71,-5.73
247674,2333,0,159,99478,35.00,-6.68,-5.71
247696,2992,0,181,99478,35.00,-6.71,-5.68
247718,2856,0,172,99478,35.00,-6.67,-5.71
247740,2963,0,171,99478,35.00,-6.67,-5.71
247783,3692,0,178,99478,35.00,-6.66,-5.71
247805,3389,0,159,99478,35.00,-6.68,-5.69
247827,2629,0,141,99478,35.00,-6.68,-5.72
247849,1077,0,119,99478,35.00,-6.66,-5.73
247871,425,0,137,99478,35.00,-6.71,-5.73
247893,509,0,140,99478,35.00,-6.66,-5.71
247915,1493,0,160,99478,35.00,-6.69,-5.71
247937,2389,0,173,99478,35.00,-6.66,-5.72
247959,2541,0,166,99478,35.00,-6.67,-5.73
247981,2891,0,169,99478,35.00,-6.68,-5.70
248023,2741,0,151,99478,35.00,-6.67,-5.72
248045,1981,0,127,99478,35.00,-6.69,-5.76
248067,938,0,121,99478,35.00,-6.65,-5.72
248089,0,0,115,99478,35.00,-6.65,-5.71
248111,483,0,136,99478,35.00,-6.67,-5.74
248133,1469,0,148,99478,35.00,-6.64,-5.72
248155,1481,0,147,99478,35.00,-6.64,-5.70
248177,1277,0,145,99478,35.00,-6.65,-5.75
248199,2246,0,167,99478,35.00,-6.70,-5.72
248221,2963,0,155,99478,35.00,-6.73,-5.72
248243,982,0,117,99478,35.00,-6.69,-5.81
248284,921,0,137,99478,35.00,-6.67,-5.75
248306,0,0,123,99478,35.00,-6.65,-5.74
248328,0,0,123,99478,35.00,-6.64,-5.74
248350,411,0,135,99478,35.00,-6.66,-5.74
248372,725,0,141,99478,35.00,-6.66,-5.78
248394,1421,0,155,99478,35.00,-6.65,-5.77
248416,2231,0,165,99478,35.00,-6.68,-5.74
248438,2853,0,168,99478,35.00,-6.69,-5.77
248460,2453,0,153,99478,35.00,-6.68,-5.74
248482,1767,0,147,99478,35.00,-6.67,-5.76
248525,1384,0,141,99478,35.00,-6.65,-5.73
248547,1727,0,139,99478,35.00,-6.67,-5.70
248569,939,0,120,99478,35.00,-6.73,-5.74
248591,2327,0,152,99478,35.00,-6.69,-5.77
248613,4095,0,173,99478,35.00,-6.66,-5.74
248635,2185,0,151,99478,35.00,-6.64,-5.69
248657,0,0,143,99478,35.00,-6.67,-5.74
248679,0,0,141,99478,35.00,-6.67,-5.79
248701,0,0,125,99478,35.00,-6.68,-5.75
248723,1047,0,141,99478,35.00,-6.68,-5.75
248765,1530,0,139,99478,35.00,-6.69,-5.79
248787,1637,0,127,99478,35.00,-6.66,-5.76
248809,2065,0,149,99478,35.00,-6.67,-5.73
248831,1829,0,151,99478,35.00,-6.72,-5.75
248853,1819,0,151,99478,35.00,-6.63,-5.72
248875,2259,0,169,99478,35.00,-6.62,-5.70
248897,2389,0,165,99478,35.00,-6.64,-5.73
248919,1382,0,141,99478,35.00,-6.66,-5.76
248941,2665,0,155,99478,35.00,-6.66,-5.72
248963,2189,0,139,99478,35.00,-6.67,-5.76
248985,1774,0,133,99478,35.00,-6.67,-5.75
249026,1627,0,135,99478,35.00,-6.66,-5.76
249048,1557,0,135,99478,35.00,-6.69,-5.76
249070,1626,0,141,99478,35.00,-6.68,-5.73
249092,1758,0,148,99478,35.00,-6.70,-5.76
249114,2249,0,165,99478,35.00,-6.68,-5.75
249136,2605,0,173,99478,35.00,-6.66,-5.73
249158,2361,0,167,99478,35.00,-6.68,-5.72
249180,2374,0,160,99478,35.00,-6.69,-5.78
249202,1817,0,139,99478,35.00,-6.66,-5.76
249224,1545,0,140,99478,35.00,-6.69,-5.75
249267,1298,0,133,99478,35.00,-6.70,-5.74
249289,1673,0,140,99478,35.00,-6.69,-5.76
249311,1150,0,145,99478,35.00,-6.64,-5.77
249333,2072,0,169,99478,35.00,-6.69,-5.72
249355,2080,0,165,99478,35.00,-6.67,-5.74
249377,2781,0,181,99478,35.00,-6.67,-5.77
249399,2543,0,159,99478,35.00,-6.67,-5.74
249421,1887,0,145,99478,35.00,-6.69,-5.75
249443,1362,0,134,99478,35.00,-6.68,-5.75
249465,763,0,125,99478,35.00,-6.69,-5.74
249507,1194,0,143,99478,35.00,-6.68,-5.73
249529,2327,0,159,99478,35.00,-6.69,-5.70
249551,2212,0,155,99478,35.00,-6.67,-5.73
249573,2601,0,172,99478,35.00,-6.67,-5.74
249595,2479,0,172,99478,35.00,-6.71,-5.74
249617,1125,0,147,99478,35.00,-6.69,-5.76
249639,1199,0,141,99478,35.00,-6.68,-5.75
249661,1395,0,126,99478,35.00,-6.69,-5.74
249683,1467,0,133,99478,35.00,-6.67,-5.72
249705,843,0,118,99478,35.00,-6.67,-5.74
249727,415,0,119,99478,35.00,-6.66,-5.71
249768,716,0,143,99478,35.00,-6.68,-5.70
249790,2007,0,157,99478,35.00,-6.67,-5.70
249812,2907,0,178,99478,35.00,-6.67,-5.73
249834,3604,0,185,99478,35.00,-6.70,-5.72
249856,3087,0,171,99478,35.00,-6.69,-5.69
249878,2909,0,159,99478,35.00,-6.64,-5.73
249900,2985,0,154,99478,35.00,-6.69,-5.75
249922,2059,0,139,99478,35.00,-6.66,-5.75
249944,1597,0,135,99478,35.00,-6.68,-5.71
249966,1625,0,136,99478,35.00,-6.69,-5.73
250587,1675,0,141,99478,37.01,-6.63,-5.75
250618,2285,0,157,99478,35.00,-6.68,-5.76
250640,1609,0,126,99478,35.00,-6.65,-5.73
250662,1494,0,133,99478,35.00,-6.68,-5.74
250684,1439,0,133,99478,35.00,-6.68,-5.74
250706,1547,0,141,99478,35.00,-6.65,-5.73
250728,1851,0,151,99478,35.00,-6.65,-5.73
250770,1975,0,155,99478,35.00,-6.71,-5.73
250792,1938,0,163,99478,35.00,-6.65,-5.75
250814,2659,0,171,99478,35.00,-6.66,-5.71
250836,2054,0,151,99478,35.00,-6.67,-5.75
250858,2141,0,146,99478,35.00,-6.70,-5.74
250880,1626,0,137,99478,35.00,-6.66,-5.73
250902,941,0,124,99478,35.00,-6.69,-5.74
250924,1463,0,137,99478,35.00,-6.68,-5.72
250946,1365,0,135,99478,35.00,-6.65,-5.70
250968,1465,0,142,99478,35.00,-6.67,-5.74
250990,1641,0,154,99478,35.00,-6.67,-5.74
251031,2143,0,165,99478,35.00,-6.67,-5.75
251053,2598,0,175,99478,35.00,-6.68,-5.75
251075,2601,0,168,99478,35.00,-6.66,-5.77
251097,2524,0,160,99478,35.00,-6.67,-5.73
251119,2647,0,153,99478,35.00,-6.67,-5.71
251141,1381,0,133,99478,35.00,-6.70,-5.75
251163,1273,0,125,99478,35.00,-6.67,-5.74
251185,1755,0,143,99478,35.00,-6.64,-5.75
251207,1789,0,147,99478,35.00,-6.67,-5.74
251229,1289,0,145,99478,35.00,-6.66,-5.74
251251,2728,0,173,99478,35.00,-6.65,-5.69
251292,4095,0,187,99478,35.00,-6.66,-5.74
251314,2589,0,170,99478,35.00,-6.65,-5.72
251336,2899,0,160,99478,35.00,-6.70,-5.70
251358,2138,0,140,99478,35.00,-6.66,-5.76
251380,1438,0,137,99478,35.00,-6.70,-5.74
251402,1800,0,141,99478,35.00,-6.65,-5.76
251424,1013,0,125,99478,35.00,-6.65,-5.69
251446,1229,0,149,99478,35.00,-6.67,-5.71
251468,1059,0,147,99478,35.00,-6.66,-5.73
251490,1687,0,166,99478,35.00,-6.62,-5.75
251532,1925,0,169,99478,35.00,-6.65,-5.74
251554,2003,0,159,99478,35.00,-6.66,-5.73
251576,2108,0,152,99478,35.00,-6.65,-5.75
251598,1587,0,147,99478,35.00,-6.64,-5.75
251620,1227,0,123,99478,35.00,-6.65,-5.72
251642,713,0,121,99478,35.00,-6.67,-5.76
251664,971,0,132,99478,35.00,-6.66,-5.73
251686,1477,0,141,99478,35.00,-6.68,-5.73
251708,1769,0,155,99478,35.00,-6.65,-5.72
251730,2639,0,173,99478,35.00,-6.67,-5.77
251752,2617,0,166,99478,35.00,-6.67,-5.76
251793,2103,0,153,99478,35.00,-6.64,-5.73
251815,2254,0,155,99478,35.00,-6.66,-5.74
251837,1359,0,135,99478,35.00,-6.67,-5.75
251859,1273,0,112,99478,35.00,-6.66,-5.73
251881,839,0,125,99478,35.00,-6.67,-5.77
251903,1111,0,135,99478,35.00,-6.68,-5.70
251925,1261,0,140,99478,35.00,-6.64,-5.74
251947,1379,0,143,99478,35.00,-6.70,-5.75
251969,1968,0,169,99478,35.00,-6.63,-5.74
251991,2100,0,158,99478,35.00,-6.66,-5.72
252368,2699,0,167,99478,36.97,-6.66,-5.73
252396,2393,0,173,99478,35.00,-6.65,-5.72
252418,1479,0,125,99478,35.00,-6.65,-5.70
252440,1401,0,135,99478,35.00,-6.66,-5.75
252462,1417,0,137,99478,35.00,-6.68,-5.73
252484,1513,0,141,99478,35.00,-6.67,-5.74
252506,1899,0,159,99478,35.00,-6.68,-5.73
252528,2141,0,167,99478,35.00,-6.66,-5.71
252550,2519,0,169,99478,35.00,-6.67,-5.71
252572,2515,0,171,99478,35.00,-6.70,-5.72
252594,2409,0,159,99478,35.00,-6.69,-5.74
252635,2036,0,149,99478,35.00,-6.65,-5.72
252657,1895,0,141,99478,35.00,-6.66,-5.74
252679,1567,0,132,99478,35.00,-6.62,-5.73
252701,1386,0,135,99478,35.00,-6.65,-5.70
252723,1555,0,142,99478,35.00,-6.64,-5.71
252745,1803,0,153,99478,35.00,-6.71,-5.70
252767,2117,0,163,99478,35.00,-6.68,-5.72
252789,2357,0,167,99478,35.00,-6.68,-5.71
252811,2516,0,167,99478,35.00,-6.67,-5.74
252833,2425,0,157,99478,35.00,-6.64,-5.75
252855,2017,0,150,99478,35.00,-6.67,-5.71
252896,1660,0,137,99478,35.00,-6.67,-5.75
252918,1869,0,137,99478,35.00,-6.68,-5.77
252940,1483,0,133,99478,35.00,-6.66,-5.76
252962,1289,0,139,99478,35.00,-6.64,-5.73
252984,1591,0,149,99478,35.00,-6.65,-5.71
253386,1839,0,162,99478,36.75,-6.66,-5.74
253417,2227,0,166,99478,35.00,-6.69,-5.71
253439,1181,0,133,99478,35.00,-6.64,-5.75
253461,1363,0,136,99478,35.00,-6.64,-5.69
253483,1418,0,143,99478,35.00,-6.68,-5.71
253505,1935,0,157,99478,35.00,-6.65,-5.73
253527,2199,0,165,99478,35.00,-6.65,-5.76
253549,2213,0,165,99478,35.00,-6.69,-5.74
253571,2227,0,151,99478,35.00,-6.63,-5.75
253593,2237,0,151,99478,35.00,-6.68,-5.72
253615,1972,0,135,99478,35.00,-6.69,-5.71
253637,1455,84628,124,99478,35.00,-6.67,-5.74
253678,1333,26800,127,99478,35.00,-6.67,-5.70
253700,1387,3968,137,99478,35.00,-6.67,-5.75
253722,1578,1792,147,99478,35.00,-6.65,-5.73
253744,1950,512,157,99478,35.00,-6.69,-5.73
253766,2213,0,163,99478,35.00,-6.69,-5.74
253788,2413,0,167,99478,35.00,-6.66,-5.73
253810,2463,0,165,99478,35.00,-6.67,-5.73
253832,2243,0,149,99478,35.00,-6.70,-5.77
253854,1898,0,141,99478,35.00,-6.64,-5.77
253876,1589,0,137,99478,35.00,-6.63,-5.73
253919,1359,0,133,99478,35.00,-6.64,-5.72
253941,1512,0,141,99478,35.00,-6.67,-5.76
253963,1699,0,151,99478,35.00,-6.63,-5.74
253985,2021,0,159,99478,35.00,-6.68,-5.73
254403,2359,0,169,99478,37.01,-6.65,-5.74
254440,2226,0,158,99478,35.00,-6.69,-5.78
254462,1725,0,150,99478,35.00,-6.66,-5.74
254484,2063,0,164,99478,35.00,-6.68,-5.76
254506,2407,0,168,99478,35.00,-6.67,-5.70
254528,2519,0,167,99478,35.00,-6.64,-5.72
254550,2287,0,151,99478,35.00,-6.68,-5.74
254572,2079,0,145,99478,35.00,-6.66,-5.76
254594,1678,0,127,99478,35.00,-6.64,-5.72
254616,1399,0,133,99478,35.00,-6.69,-5.72
254638,1379,0,125,99478,35.00,-6.66,-5.71
254681,1493,0,141,99478,35.00,-6.66,-5.72
254703,1943,0,154,99478,35.00,-6.63,-5.69
254725,2248,0,160,99478,35.00,-6.71,-5.70
254747,2494,0,170,99478,35.00,-6.66,-5.75
254769,3563,0,171,99478,35.00,-6.67,-5.75
254791,2715,0,145,99478,35.00,-6.66,-5.75
254813,3401,0,155,99478,35.00,-6.66,-5.73
254835,3540,0,153,99478,35.00,-6.67,-5.74
254857,1624,0,123,99478,35.00,-6.70,-5.73
254879,1149,0,146,99478,35.00,-6.66,-5.72
254921,1308,0,145,99478,35.00,-6.67,-5.76
254943,1767,0,160,99478,35.00,-6.65,-5.70
254965,1979,0,159,99478,35.00,-6.68,-5.71
254987,2196,0,167,99478,35.00,-6.67,-5.74
255419,1891,0,146,99478,36.74,-6.66,-5.70
255448,1785,0,156,99478,35.00,-6.68,-5.71
255470,2005,0,145,99478,35.00,-6.63,-5.72
255492,1699,0,138,99478,35.00,-6.67,-5.75
255514,1389,0,135,99478,35.00,-6.69,-5.70
255536,1383,0,135,99478,35.00,-6.71,-5.72
255558,1414,0,141,99478,35.00,-6.68,-5.72
255580,1727,0,155,99478,35.00,-6.65,-5.77
255602,1933,0,167,99478,35.00,-6.63,-5.74
255643,2189,0,171,99478,35.00,-6.68,-5.75
255665,2385,0,166,99478,35.00,-6.66,-5.70
255687,2437,0,163,99478,35.00,-6.67,-5.77
255709,2251,0,150,99478,35.00,-6.68,-5.70
255731,1865,0,142,99478,35.00,-6.69,-5.74
255753,1479,0,135,99478,35.00,-6.65,-5.73
255775,1367,0,137,99478,35.00,-6.68,-5.71
255797,1253,0,137,99478,35.00,-6.65,-5.73
255819,1547,0,151,99478,35.00,-6.70,-5.71
255841,1983,0,159,99478,35.00,-6.65,-5.72
255863,2184,0,164,99478,35.00,-6.68,-5.73
255904,2426,0,160,99478,35.00,-6.69,-5.73
255926,2231,0,155,99478,35.00,-6.66,-5.71
255948,2375,0,157,99478,35.00,-6.71,-5.73
255970,1823,0,142,99478,35.00,-6.69,-5.69
255992,1561,0,133,99478,35.00,-6.68,-5.72
256438,1317,0,125,99478,36.65,-6.66,-5.71
256467,1989,0,157,99478,35.00,-6.71,-5.73
256489,1876,0,137,99478,35.00,-6.62,-5.73
256511,1641,0,133,99478,35.00,-6.65,-5.71
256533,1353,0,138,99478,35.00,-6.70,-5.79
256555,1354,0,135,99478,35.00,-6.69,-5.75
256577,1575,0,143,99478,35.00,-6.68,-5.72
256599,1831,0,151,99478,35.00,-6.69,-5.72
256621,2107,0,168,99478,35.00,-6.65,-5.74
256643,2429,0,169,99478,35.00,-6.65,-5.73
256665,2405,0,163,99478,35.00,-6.68,-5.73
256706,2227,0,155,99478,35.00,-6.65,-5.71
256728,1905,0,139,99478,35.00,-6.67,-5.74
256750,1607,0,137,99478,35.00,-6.66,-5.76
256772,1318,0,127,99478,35.00,-6.67,-5.69
256794,1327,0,133,99478,35.00,-6.67,-5.75
256816,1405,0,141,99478,35.00,-6.68,-5.74
256838,1747,0,153,99478,35.00,-6.68,-5.74
256860,2056,0,165,99478,35.00,-6.70,-5.73
256882,2357,0,168,99478,35.00,-6.70,-5.72
256904,2491,0,171,99478,35.00,-6.66,-5.73
256946,2239,0,151,99478,35.00,-6.69,-5.76
256968,2065,0,148,99478,35.00,-6.68,-5.73
256990,1471,0,123,99478,35.00,-6.69,-5.69
257710,1284,0,125,99478,36.84,-6.66,-5.70
257749,937,0,121,99478,35.00,-6.67,-5.69
257771,1123,0,119,99478,35.00,-6.68,-5.75
257793,1189,0,126,99478,35.00,-6.67,-5.75
257815,1447,0,147,99478,35.00,-6.65,-5.73
257837,1877,0,157,99478,35.00,-6.68,-5.75
257859,2249,0,165,99478,35.00,-6.66,-5.75
257881,2407,0,159,99478,35.00,-6.69,-5.77
257903,2036,0,155,99478,35.00,-6.66,-5.78
257925,1721,0,141,99478,35.00,-6.67,-5.74
257947,1547,0,133,99478,35.00,-6.66,-5.70
257989,1276,0,121,99478,35.00,-6.67,-5.73
258728,1337,0,123,99478,36.90,-6.64,-5.74
258753,1339,0,125,99478,35.00,-6.70,-5.72
258775,2037,0,155,99478,35.00,-6.66,-5.69
258797,3064,0,171,99478,35.00,-6.68,-5.69
258819,2089,0,153,99478,35.00,-6.65,-5.71
258841,1380,0,148,99478,35.00,-6.67,-5.76
258863,2539,0,157,99478,35.00,-6.66,-5.70
258885,1785,0,134,99478,35.00,-6.69,-5.73
258907,1187,0,121,99478,35.00,-6.67,-5.74
258929,1304,0,121,99478,35.00,-6.71,-5.72
258972,1499,0,137,99478,35.00,-6.70,-5.74
258994,2297,0,154,99478,35.00,-6.71,-5.74
259746,2777,0,167,99478,36.38,-6.71,-5.72
259774,1903,0,136,99478,35.00,-6.70,-5.76
259796,2837,0,175,99478,35.00,-6.68,-5.72
259818,2943,0,173,99478,35.00,-6.69,-5.74
259840,2423,0,159,99478,35.00,-6.66,-5.74
259862,2173,0,151,99478,35.00,-6.66,-5.71
259884,2777,0,153,99478,35.00,-6.66,-5.71
259906,1641,0,125,99478,35.00,-6.70,-5.74
259928,861,0,123,99478,35.00,-6.69,-5.70
259950,975,0,137,99478,35.00,-6.67,-5.75
259972,1325,0,148,99478,35.00,-6.67,-5.72
260514,1720,0,157,99478,36.71,-6.70,-5.75
260556,2509,0,171,99478,35.00,-6.67,-5.68
260578,2553,0,162,99478,35.00,-6.68,-5.70
260600,2460,0,153,99478,35.00,-6.65,-5.70
260622,1926,0,135,99478,35.00,-6.68,-5.76
260644,1682,0,127,99478,35.00,-6.67,-5.75
260666,1469,0,135,99478,35.00,-6.64,-5.74
260688,1483,0,135,99478,35.00,-6.70,-5.69
260710,1896,0,147,99478,35.00,-6.68,-5.74
260732,2091,0,159,99478,35.00,-6.66,-5.72
260754,2263,0,168,99478,35.00,-6.65,-5.75
260796,2616,0,171,99478,35.00,-6.67,-5.72
260818,2539,0,164,99478,35.00,-6.65,-5.73
260840,2362,0,152,99478,35.00,-6.69,-5.73
260862,2005,0,142,99478,35.00,-6.64,-5.73
260884,1835,0,133,99478,35.00,-6.64,-5.71
260906,1509,0,131,99478,35.00,-6.70,-5.75
260928,1497,0,140,99478,35.00,-6.65,-5.71
260950,1509,0,147,99478,35.00,-6.62,-5.72
260972,1914,0,158,99478,35.00,-6.70,-5.73
260994,2188,0,165,99478,35.00,-6.63,-5.72
261526,2445,0,166,99478,36.98,-6.68,-5.73
261558,1451,0,145,99478,35.00,-6.63,-5.73
261580,2825,0,150,99478,35.00,-6.66,-5.74
261602,1340,0,122,99478,35.00,-6.65,-5.77
261624,1077,0,135,99478,35.00,-6.62,-5.73
261646,1397,0,136,99478,35.00,-6.67,-5.74
261668,1620,0,151,99478,35.00,-6.69,-5.73
261690,2056,0,158,99478,35.00,-6.70,-5.74
261712,2587,0,168,99478,35.00,-6.68,-5.73
261734,2591,0,167,99478,35.00,-6.68,-5.75
261756,2223,0,155,99478,35.00,-6.68,-5.69
261778,2302,0,153,99478,35.00,-6.67,-5.74
261819,1439,0,127,99478,35.00,-6.67,-5.74
261841,1303,0,123,99478,35.00,-6.68,-5.70
261863,1041,0,124,99478,35.00,-6.64,-5.71
261885,1007,0,127,99478,35.00,-6.68,-5.72
261907,1258,0,139,99478,35.00,-6.66,-5.71
261929,1461,0,149,99478,35.00,-6.69,-5.74
261951,1976,0,169,99478,35.00,-6.71,-5.73
261973,2345,0,168,99478,35.00,-6.66,-5.73
261995,2493,0,169,99478,35.00,-6.69,-5.76
262544,2345,0,153,99478,36.53,-6.68,-5.72
262581,1533,0,142,99478,35.00,-6.68,-5.74
262603,1279,0,121,99478,35.00,-6.69,-5.73
262625,1379,0,139,99478,35.00,-6.73,-5.73
262647,1607,0,147,99478,35.00,-6.68,-5.73
262669,1993,0,156,99478,35.00,-6.69,-5.69
262691,2357,0,169,99478,35.00,-6.68,-5.70
262713,2588,0,165,99478,35.00,-6.69,-5.74
262735,2534,0,163,99478,35.00,-6.68,-5.71
262757,2171,0,143,99478,35.00,-6.65,-5.69
262779,1746,0,135,99478,35.00,-6.65,-5.73
262822,1402,0,125,99478,35.00,-6.68,-5.74
262844,1437,0,131,99478,35.00,-6.65,-5.72
262866,1615,0,143,99478,35.00,-6.68,-5.70
262888,2035,0,155,99478,35.00,-6.67,-5.70
262910,2359,0,164,99478,35.00,-6.67,-5.76
262932,2621,0,166,99478,35.00,-6.65,-5.71
262954,2483,0,165,99478,35.00,-6.66,-5.74
262976,2217,0,149,99478,35.00,-6.66,-5.76
262998,1877,0,135,99478,35.00,-6.67,-5.71
263020,1364,0,123,99478,35.00,-6.65,-5.72
263062,1264,0,125,99478,35.00,-6.67,-5.72
263084,1323,0,135,99478,35.00,-6.64,-5.73
263106,1607,0,148,99478,35.00,-6.68,-5.76
263128,2063,0,160,99478,35.00,-6.66,-5.72
263150,2396,0,166,99478,35.00,-6.70,-5.72
263172,1945,0,155,99478,35.00,-6.68,-5.67
263194,2679,0,165,99478,35.00,-6.68,-5.73
263216,2168,0,147,99478,35.00,-6.68,-5.73
263238,1800,0,137,99478,35.00,-6.66,-5.70
263260,1279,0,124,99478,35.00,-6.67,-5.76
263282,1349,0,132,99478,35.00,-6.67,-5.75
263323,1370,0,137,99478,35.00,-6.70,-5.74
263345,1462,0,141,99478,35.00,-6.66,-5.70
263367,1939,0,153,99478,35.00,-6.69,-5.72
263389,2239,0,167,99478,35.00,-6.66,-5.70
263411,2572,0,170,99478,35.00,-6.69,-5.71
263433,2531,0,165,99478,35.00,-6.67,-5.74
263455,2194,0,149,99478,35.00,-6.65,-5.75
263477,1840,0,135,99478,35.00,-6.66,-5.75
263499,1452,0,125,99478,35.00,-6.67,-5.71
263521,1274,0,124,99478,35.00,-6.67,-5.77
263564,1261,0,134,99478,35.00,-6.67,-5.72
263586,1708,0,149,99478,35.00,-6.64,-5.71
263608,1997,0,164,99478,35.00,-6.67,-5.75
263630,2468,0,169,99478,35.00,-6.65,-5.72
263652,2483,0,160,99478,35.00,-6.66,-5.76
263674,2325,0,155,99478,35.00,-6.62,-5.73
263696,2052,0,145,99478,35.00,-6.65,-5.72
263718,1593,0,134,99478,35.00,-6.68,-5.75
263740,1355,0,132,99478,35.00,-6.67,-5.73
263762,1316,0,135,99478,35.00,-6.65,-5.71
263804,1438,0,144,99478,35.00,-6.67,-5.70
263826,1769,0,154,99478,35.00,-6.66,-5.73
263848,2153,0,164,99478,35.00,-6.66,-5.72
263870,2427,0,170,99478,35.00,-6.70,-5.70
263892,2456,0,165,99478,35.00,-6.67,-5.73
263914,2327,0,155,99478,35.00,-6.68,-5.73
263936,2023,0,141,99478,35.00,-6.66,-5.70
263958,1545,0,125,99478,35.00,-6.72,-5.74
263980,1293,0,123,99478,35.00,-6.63,-5.70
264579,1331,0,128,99478,36.53,-6.65,-5.73
264610,1289,0,135,99478,35.00,-6.68,-5.73
264632,2376,0,153,99478,35.00,-6.69,-5.74
264654,2076,0,145,99478,35.00,-6.67,-5.72
264676,1739,0,133,99478,35.00,-6.68,-5.70
264698,1401,0,122,99478,35.00,-6.65,-5.74
264720,1307,0,125,99478,35.00,-6.70,-5.73
264742,1430,0,139,99478,35.00,-6.66,-5.70
264764,1762,0,149,99478,35.00,-6.66,-5.74
264807,2211,0,165,99478,35.00,-6.66,-5.75
264829,2328,0,160,99478,35.00,-6.64,-5.76
264851,2469,0,159,99478,35.00,-6.68,-5.73
264873,2180,0,143,99478,35.00,-6.71,-5.75
264895,1868,0,135,99478,35.00,-6.68,-5.73
264917,1447,0,125,99478,35.00,-6.70,-5.74
264939,1241,0,122,99478,35.00,-6.67,-5.73
264961,1405,0,138,99478,35.00,-6.67,-5.74
264983,1629,0,151,99478,35.00,-6.66,-5.72
265345,1956,0,159,99478,36.52,-6.69,-5.74
265373,2361,0,169,99096,35.00,-6.66,-5.72
265395,1368,0,122,98996,35.00,-6.66,-5.74
265417,1235,0,123,98932,35.00,-6.69,-5.73
265439,1259,0,133,98871,35.00,-6.66,-5.75
265461,1375,0,141,98871,35.00,-6.66,-5.74
265483,1863,0,156,98852,35.00,-6.67,-5.73
265505,2156,0,165,98798,35.00,-6.66,-5.70
265527,2463,0,165,98647,35.00,-6.67,-5.70
265569,2511,0,167,98165,35.00,-6.66,-5.73
265591,2298,0,153,97995,35.00,-6.70,-5.72
265613,1943,0,141,98073,35.00,-6.68,-5.73
265635,1605,0,131,98272,35.00,-6.70,-5.76
265657,1311,0,127,98545,35.00,-6.69,-5.73
265679,1331,0,133,98829,35.00,-6.68,-5.73
265701,1598,0,145,99068,35.00,-6.66,-5.67
265723,1893,0,152,99179,35.00,-6.68,-5.73
265745,2279,0,164,99220,35.00,-6.69,-5.72
265767,2453,0,167,99282,35.00,-6.67,-5.73
265809,2515,0,165,99836,35.00,-6.68,-5.73
265831,2315,0,150,99836,35.00,-6.70,-5.72
265853,1875,0,142,99836,35.00,-6.69,-5.73
265875,1421,0,123,99836,35.00,-6.66,-5.76
265897,1271,0,123,100000,35.00,-6.69,-5.74
265919,1316,0,135,99884,35.00,-6.65,-5.72
265941,1607,0,151,99912,35.00,-6.67,-5.74
265963,1838,0,153,99912,35.00,-6.67,-5.77
265985,2283,0,167,99912,35.00,-6.67,-5.73
266359,2599,0,169,99912,36.91,-6.64,-5.77
266391,1743,0,151,99912,35.00,-6.69,-5.76
266413,1753,0,137,99912,35.00,-6.71,-5.73
266435,1463,0,125,99912,35.00,-6.67,-5.70
266457,1299,0,123,99912,35.00,-6.72,-5.76
266479,1396,0,139,99912,35.00,-6.66,-5.73
266501,1763,0,149,99912,35.00,-6.67,-5.76
266523,2343,0,169,99912,35.00,-6.69,-5.74
266545,2350,0,168,99912,35.00,-6.69,-5.73
266567,2391,0,167,99912,35.00,-6.68,-5.76
266589,2425,0,156,99912,35.00,-6.74,-5.76
266631,2106,0,141,99912,35.00,-6.65,-5.76
266653,1593,0,125,99912,35.00,-6.68,-5.72
266675,1373,0,125,99912,35.00,-6.67,-5.73
266697,1235,0,133,99912,35.00,-6.68,-5.74
266719,1479,0,140,99912,35.00,-6.63,-5.70
266741,1675,0,152,99912,35.00,-6.69,-5.70
266763,2107,0,168,99912,35.00,-6.65,-5.75
266785,2413,0,165,99912,35.00,-6.66,-5.73
266807,2577,0,167,99912,35.00,-6.66,-5.76
266829,2387,0,150,99912,35.00,-6.70,-5.73
266851,2015,0,141,99912,35.00,-6.69,-5.73
266892,1605,0,128,99912,35.00,-6.68,-5.76
266914,1363,0,121,99912,35.00,-6.67,-5.74
266936,1225,0,125,99912,35.00,-6.68,-5.74
266958,1316,0,137,99912,35.00,-6.68,-5.74
266980,1670,0,149,99912,35.00,-6.69,-5.71
267377,1998,0,158,99912,36.74,-6.70,-5.67
267413,1686,0,143,99912,35.00,-6.69,-5.69
267435,1251,0,126,99912,35.00,-6.65,-5.70
267457,1555,0,135,99912,35.00,-6.67,-5.73
267479,1755,0,141,99912,35.00,-6.68,-5.73
267501,2147,0,153,99912,35.00,-6.65,-5.69
267523,2349,0,159,99912,35.00,-6.68,-5.71
267545,2441,0,157,99912,35.00,-6.67,-5.76
267567,2361,0,149,99912,35.00,-6.67,-5.73
267589,1947,0,135,99912,35.00,-6.65,-5.71
267611,1628,0,125,99912,35.00,-6.71,-5.73
267633,1241,0,119,99912,35.00,-6.65,-5.71
267674,1035,0,122,99912,35.00,-6.65,-5.72
267696,1433,0,133,99912,35.00,-6.70,-5.72
267718,1359,0,140,99912,35.00,-6.68,-5.70
267740,1797,0,151,99912,35.00,-6.67,-5.73
267762,2261,0,163,99912,35.00,-6.65,-5.74
267784,2367,0,165,99912,35.00,-6.65,-5.70
267806,2531,0,159,99912,35.00,-6.67,-5.70
267828,3273,0,165,99912,35.00,-6.73,-5.70
267850,1963,0,135,99912,35.00,-6.69,-5.69
267872,1541,0,135,99912,35.00,-6.73,-5.65
267915,1597,0,137,99912,35.00,-6.70,-5.72
267937,1357,0,141,99912,35.00,-6.66,-5.66
267959,1625,0,151,99912,35.00,-6.69,-5.66
267981,1876,0,157,99912,35.00,-6.75,-5.64
268393,1941,0,160,99912,37.03,-6.69,-5.64
268421,1739,0,141,99912,35.00,-6.68,-5.69
268443,2653,0,168,99912,35.00,-6.67,-5.70
268465,3051,0,173,99912,35.00,-6.59,-5.66
268487,2349,0,148,99912,35.00,-6.68,-5.70
268509,2487,0,149,99912,35.00,-6.67,-5.72
268531,1669,0,135,99912,35.00,-6.60,-5.75
268553,1213,0,131,99912,35.00,-6.62,-5.73
268575,1869,0,147,99912,35.00,-6.73,-5.80
268616,1511,0,149,99912,35.00,-6.64,-5.84
268638,1803,0,154,99912,35.00,-6.65,-5.79
268660,2366,0,156,99912,35.00,-6.62,-5.82
268682,2277,0,157,99912,35.00,-6.61,-5.82
268704,2375,0,155,99912,35.00,-6.64,-5.81
268726,2079,0,147,99912,35.00,-6.62,-5.80
268748,1641,0,135,99912,35.00,-6.60,-5.84
268770,1275,0,123,99912,35.00,-6.62,-5.83
268792,996,0,125,99912,35.00,-6.60,-5.84
268814,1173,0,135,99912,35.00,-6.62,-5.86
268836,1993,0,156,99912,35.00,-6.61,-5.85
268877,1117,0,149,99912,35.00,-6.63,-5.89
268899,1903,0,165,99912,35.00,-6.61,-5.84
268921,2309,0,167,99912,35.00,-6.46,-5.81
268943,2085,0,156,99912,35.00,-6.59,-5.88
268965,2281,0,153,99912,35.00,-6.60,-5.88
268987,1629,0,137,99912,35.00,-6.64,-5.82
269412,1371,0,136,99912,36.61,-6.61,-5.88
269441,1559,0,145,99912,35.00,-6.65,-5.78
269463,2301,0,159,99912,35.00,-6.62,-5.81
269485,2317,0,153,99912,35.00,-6.59,-5.83
269507,1924,0,139,99912,35.00,-6.61,-5.81
269529,1529,0,133,99912,35.00,-6.58,-5.82
269551,1506,0,141,99912,35.00,-6.61,-5.82
269573,1391,0,139,99912,35.00,-6.60,-5.83
269595,1763,0,150,99912,35.00,-6.64,-5.88
269617,1944,0,157,99912,35.00,-6.61,-5.84
269659,2200,0,163,99912,35.00,-6.61,-5.81
269681,2248,0,158,99912,35.00,-6.58,-5.74
269703,2093,0,154,99912,35.00,-6.62,-5.84
269725,2431,0,157,99912,35.00,-6.68,-5.78
269747,1904,0,140,99912,35.00,-6.66,-5.79
269769,1798,0,136,99912,35.00,-6.58,-5.76
269791,1607,0,134,99912,35.00,-6.65,-5.79
269813,1596,0,139,99912,35.00,-6.59,-5.85
269835,1624,0,151,99912,35.00,-6.62,-5.79
269857,2056,0,159,99912,35.00,-6.61,-5.82
269900,2783,0,177,99912,35.00,-6.63,-5.84
269922,2479,0,163,99912,35.00,-6.53,-5.81
269944,1873,0,149,99912,35.00,-6.50,-5.78
269966,2235,0,147,99912,35.00,-6.57,-5.84
269988,1519,0,135,99912,35.00,-6.61,-5.81
270430,1739,0,141,99912,36.69,-6.81,-5.94
270461,1213,0,137,99912,35.00,-6.60,-5.90
270483,2520,0,157,99912,35.00,-6.53,-5.85
270505,1927,0,139,99912,35.00,-6.58,-5.91
270527,2057,0,149,99912,35.00,-6.62,-6.01
270549,1389,0,127,99912,35.00,-6.65,-5.93
270571,1419,0,139,99912,35.00,-6.61,-5.96
270593,1484,0,146,99912,35.00,-6.58,-5.96
270615,1333,0,147,99912,35.00,-6.54,-5.96
270637,2207,0,155,99912,35.00,-6.46,-5.89
270659,2364,0,165,99912,35.00,-6.60,-5.92
270702,2220,0,157,99912,35.00,-6.63,-5.86
270724,1369,0,125,99912,35.00,-6.50,-5.87
270746,1390,0,141,99912,35.00,-6.61,-5.83
270768,1277,0,135,99912,35.00,-6.61,-5.79
270790,1527,0,139,99912,35.00,-6.59,-5.78
270812,1640,0,147,99912,35.00,-6.56,-5.79
270834,1849,0,154,99912,35.00,-6.60,-5.78
270856,2105,0,163,99912,35.00,-6.62,-5.78
270878,2175,0,173,99912,35.00,-6.56,-5.84
270900,2777,0,175,99912,35.00,-6.69,-5.81
270942,1432,0,147,99912,35.00,-6.59,-5.70
270964,0,0,110,99912,35.00,-6.59,-5.69
270986,0,0,110,99912,35.00,-6.51,-5.67
271701,4095,0,179,99912,36.67,-6.77,-6.53
271725,4036,0,187,99912,35.00,-6.61,-5.67
271747,437,0,122,99912,35.00,-6.73,-5.73
271769,196,0,123,99912,35.00,-6.81,-5.73
271791,957,0,147,99912,35.00,-6.74,-5.70
271813,1607,0,160,99912,35.00,-6.81,-5.78
271835,1763,0,165,99912,35.00,-6.79,-5.72
271857,1811,0,169,99912,35.00,-6.83,-5.72
271879,1853,0,167,99912,35.00,-6.90,-5.67
271901,4095,0,201,99912,35.00,-6.76,-5.79
271923,4095,0,173,99912,35.00,-6.62,-5.82
271965,4095,0,167,99912,35.00,-6.81,-5.97
271987,1816,0,149,99912,35.00,-6.82,-5.83
272719,3739,0,173,99912,36.39,-6.77,-5.92
272747,2133,0,153,99912,35.00,-6.56,-6.13
272769,1493,0,143,99912,35.00,-6.51,-6.06
272791,1992,0,159,99912,35.00,-6.51,-6.11
272813,2510,0,172,99912,35.00,-6.52,-6.13
272835,2577,0,171,99912,35.00,-6.51,-6.12
272857,2652,0,168,99912,35.00,-6.55,-6.12
272879,2469,0,154,99912,35.00,-6.55,-6.13
272901,2261,0,149,99912,35.00,-6.56,-6.14
272923,1823,0,140,99912,35.00,-6.54,-6.15
272945,1595,0,127,99912,35.00,-6.53,-6.13
272988,1240,0,127,99912,35.00,-6.52,-6.12
273737,1548,0,143,99912,36.91,-6.36,-6.07
273770,2312,0,149,99912,35.00,-6.50,-6.14
273792,2420,0,171,99912,35.00,-6.56,-6.15
273814,2787,0,179,99912,35.00,-6.52,-6.13
273836,2857,0,175,99912,35.00,-6.51,-6.15
273858,2599,0,165,99912,35.00,-6.54,-6.16
273880,2283,0,153,99912,35.00,-6.56,-6.15
273902,1863,0,143,99912,35.00,-6.51,-6.13
273924,1529,0,143,99912,35.00,-6.52,-6.11
273946,1605,0,141,99912,35.00,-6.52,-6.13
273968,1714,0,152,99912,35.00,-6.53,-6.13
274754,2136,0,165,99912,36.63,-6.49,-6.13
274792,2103,0,163,99912,35.00,-6.50,-6.16
274814,2366,0,160,99912,35.00,-6.52,-6.13
274836,2139,0,153,99912,35.00,-6.50,-6.15
274858,2111,0,149,99912,35.00,-6.54,-6.14
274880,1549,0,137,99912,35.00,-6.51,-6.16
274902,1252,0,139,99912,35.00,-6.52,-6.12
274924,1257,0,139,99912,35.00,-6.55,-6.19
274946,1373,0,147,99912,35.00,-6.52,-6.15
274968,1701,0,156,99912,35.00,-6.51,-6.11
274990,2089,0,165,99912,35.00,-6.56,-6.13
275518,2423,0,169,99912,36.71,-6.52,-6.13
275554,1196,0,117,99912,35.00,-6.49,-6.14
275576,1877,0,144,99912,35.00,-6.46,-6.12
275598,1559,0,135,99912,35.00,-6.53,-6.10
275620,1223,0,127,99912,35.00,-6.52,-6.14
275642,1244,0,133,99912,35.00,-6.51,-6.16
275664,1428,0,143,99912,35.00,-6.52,-6.17
275686,1719,0,155,99912,35.00,-6.52,-6.15
275708,1983,0,168,99912,35.00,-6.62,-6.19
275730,2471,0,179,99912,35.00,-6.52,-6.11
275752,2662,0,174,99912,35.00,-6.53,-6.15
275774,2658,0,165,99912,35.00,-6.52,-6.20
275815,2299,0,155,99912,35.00,-6.52,-6.16
275837,1971,0,146,99912,35.00,-6.50,-6.13
275859,1605,0,138,99912,35.00,-6.52,-6.16
275881,1321,0,133,99912,35.00,-6.50,-6.16
275903,1271,0,138,99912,35.00,-6.52,-6.15
275925,1587,0,147,99912,35.00,-6.55,-6.15
275947,1909,0,159,99912,35.00,-6.52,-6.15
275969,2249,0,169,99912,35.00,-6.56,-6.13
275991,2398,0,166,99912,35.00,-6.50,-6.11
276535,2531,0,168,99912,36.32,-6.50,-6.16
276577,1580,0,126,99912,35.00,-6.50,-6.19
276599,1531,0,134,99912,35.00,-6.49,-6.18
276621,1405,0,135,99912,35.00,-6.52,-6.15
276643,1429,0,139,99912,35.00,-6.56,-6.16
276665,1675,0,152,99912,35.00,-6.53,-6.16
276687,1965,0,166,99912,35.00,-6.49,-6.15
276709,2271,0,165,99912,35.00,-6.54,-6.13
276731,2509,0,166,99912,35.00,-6.52,-6.14
276753,2427,0,165,99912,35.00,-6.52,-6.14
276775,2087,0,149,99912,35.00,-6.50,-6.13
276818,1597,0,138,99912,35.00,-6.51,-6.16
276840,1269,0,134,99912,35.00,-6.52,-6.13
276862,1300,0,135,99912,35.00,-6.55,-6.18
276884,1623,0,147,99912,35.00,-6.52,-6.17
276906,1884,0,159,99912,35.00,-6.54,-6.19
276928,2220,0,167,99912,35.00,-6.51,-6.20
276950,2490,0,173,99912,35.00,-6.53,-6.14
276972,2411,0,165,99912,35.00,-6.51,-6.17
276994,2116,0,152,99912,35.00,-6.51,-6.14
277553,1561,0,136,99912,36.83,-6.56,-6.15
277583,1939,0,137,99912,35.00,-6.50,-6.14
277605,2084,0,157,99912,35.00,-6.55,-6.16
277627,2419,0,166,99912,35.00,-6.49,-6.16
277649,2611,0,171,99912,35.00,-6.53,-6.18
277671,2504,0,159,99912,35.00,-6.54,-6.16
277693,2077,0,145,99912,35.00,-6.48,-6.14
277715,1679,0,135,99912,35.00,-6.52,-6.18
277737,1259,0,125,99912,35.00,-6.54,-6.14
277759,1117,0,125,99912,35.00,-6.53,-6.16
277800,1407,0,145,99912,35.00,-6.56,-6.19
277822,1501,0,143,99912,35.00,-6.52,-6.15
277844,1901,0,159,99912,35.00,-6.51,-6.13
277866,2259,0,170,99912,35.00,-6.50,-6.15
277888,2535,0,175,99912,35.00,-6.52,-6.18
277910,2491,0,168,99912,35.00,-6.54,-6.15
277932,2291,0,156,99912,35.00,-6.53,-6.18
277954,1831,0,143,99912,35.00,-6.53,-6.16
277976,1388,0,132,99912,35.00,-6.53,-6.16
277998,1157,0,127,99912,35.00,-6.51,-6.18
278020,1224,0,136,99912,35.00,-6.57,-6.14
278061,1581,0,142,99912,35.00,-6.48,-6.16
278083,1791,0,151,99912,35.00,-6.53,-6.15
278105,2135,0,165,99912,35.00,-6.54,-6.17
278127,2347,0,170,99912,35.00,-6.53,-6.17
278149,2445,0,165,99912,35.00,-6.52,-6.17
278171,2343,0,157,99912,35.00,-6.51,-6.11
278193,1879,0,139,99912,35.00,-6.54,-6.15
278215,1527,0,136,99912,35.00,-6.49,-6.14
278237,1332,0,135,99912,35.00,-6.49,-6.16
278259,1309,0,127,99912,35.00,-6.49,-6.16
278302,1455,0,141,99912,35.00,-6.56,-6.18
278324,1887,0,157,99912,35.00,-6.52,-6.15
278346,2291,0,169,99912,35.00,-6.51,-6.16
278368,2514,0,173,99912,35.00,-6.52,-6.13
278390,2261,0,158,99912,35.00,-6.53,-6.19
278412,2010,0,149,99912,35.00,-6.50,-6.13
278434,1661,0,135,99912,35.00,-6.55,-6.18
278456,1343,0,125,99912,35.00,-6.52,-6.17
278478,1285,0,132,99912,35.00,-6.53,-6.12
278500,1316,0,139,99912,35.00,-6.53,-6.14
278542,1686,0,155,99912,35.00,-6.51,-6.16
278564,2065,0,163,99912,35.00,-6.50,-6.10
278586,2184,0,167,99912,35.00,-6.60,-6.18
278608,2412,0,165,99912,35.00,-6.52,-6.13
278630,2391,0,158,99912,35.00,-6.49,-6.16
278652,2073,0,149,99912,35.00,-6.50,-6.13
278674,1691,0,135,99912,35.00,-6.53,-6.16
278696,1355,0,127,99912,35.00,-6.55,-6.14
278718,1271,0,135,99912,35.00,-6.52,-6.14
278740,1721,0,151,99912,35.00,-6.53,-6.16
278762,1820,0,158,99912,35.00,-6.46,-6.14
278803,1835,0,159,99912,35.00,-6.54,-6.16
278825,2183,0,165,99912,35.00,-6.53,-6.18
278847,2520,0,169,99912,35.00,-6.48,-6.18
278869,2557,0,166,99912,35.00,-6.54,-6.14
278891,2263,0,155,99912,35.00,-6.53,-6.16
278913,2173,0,155,99912,35.00,-6.51,-6.17
278935,1336,0,134,99912,35.00,-6.52,-6.15
278957,1188,0,135,99912,35.00,-6.49,-6.13
278979,1287,0,139,99912,35.00,-6.53,-6.18
279341,1405,0,141,99912,36.98,-6.53,-6.16
279369,2153,0,165,99912,35.00,-6.49,-6.17
279391,1887,0,137,99912,35.00,-6.54,-6.15
279413,1613,0,133,99912,35.00,-6.56,-6.15
279435,1303,0,123,99912,35.00,-6.52,-6.16
279457,1294,0,136,99912,35.00,-6.56,-6.14
279479,1405,0,147,99912,35.00,-6.54,-6.17
279501,1703,0,153,99912,35.00,-6.48,-6.14
279523,2031,0,165,99912,35.00,-6.54,-6.18
279565,2391,0,171,99912,35.00,-6.52,-6.11
279587,2519,0,165,99912,35.00,-6.54,-6.17
279609,2381,0,156,99912,35.00,-6.51,-6.17
279631,2287,0,155,99912,35.00,-6.51,-6.20
279653,1611,0,136,99912,35.00,-6.53,-6.15
279675,1321,0,135,99912,35.00,-6.56,-6.16
279697,971,0,135,99912,35.00,-6.52,-6.15
279719,1513,0,147,99912,35.00,-6.50,-6.15
279741,1643,0,148,99912,35.00,-6.51,-6.14
279763,2164,0,167,99912,35.00,-6.55,-6.19
279805,2479,0,167,99912,35.00,-6.50,-6.17
279827,2549,0,167,99912,35.00,-6.49,-6.15
279849,2315,0,155,99912,35.00,-6.54,-6.17
279871,1942,0,152,99912,35.00,-6.50,-6.16
279893,1477,0,137,99912,35.00,-6.51,-6.18
279915,1315,0,142,99912,35.00,-6.56,-6.20
279937,887,0,127,99912,35.00,-6.55,-6.18
279959,1497,0,146,99912,35.00,-6.50,-6.14
279981,2265,0,166,99912,35.00,-6.50,-6.14
280351,2252,0,165,99912,36.81,-6.54,-6.15
280387,1418,0,127,99912,35.00,-6.55,-6.14
280409,2223,0,148,99912,35.00,-6.53,-6.17
280431,1780,0,139,99912,35.00,-6.52,-6.16
280453,1176,0,123,99912,35.00,-6.55,-6.15
280475,1196,0,135,99912,35.00,-6.51,-6.16
280497,1301,0,136,99912,35.00,-6.52,-6.15
280519,1613,0,149,99912,35.00,-6.54,-6.13
280541,2004,0,165,99912,35.00,-6.54,-6.11
280563,2285,0,167,99912,35.00,-6.53,-6.15
280585,2505,0,169,99912,35.00,-6.53,-6.16
280628,2367,0,163,99912,35.00,-6.53,-6.10
280650,1981,0,141,99912,35.00,-6.51,-6.16
280672,1451,0,126,99912,35.00,-6.52,-6.16
280694,1312,0,133,99912,35.00,-6.53,-6.17
280716,1257,0,136,99912,35.00,-6.54,-6.12
280738,1471,0,149,99912,35.00,-6.52,-6.14
280760,1903,0,158,99912,35.00,-6.56,-6.15
280782,2220,0,168,99912,35.00,-6.52,-6.14
280804,2503,0,171,99912,35.00,-6.52,-6.21
280826,2479,0,167,99912,35.00,-6.53,-6.13
280868,2211,0,154,99912,35.00,-6.50,-6.18
280890,1750,0,139,99912,35.00,-6.55,-6.15
280912,1439,0,135,99912,35.00,-6.54,-6.16
280934,1253,0,135,99912,35.00,-6.55,-6.16
280956,1482,0,141,99912,35.00,-6.53,-6.13
280978,1510,0,147,99912,35.00,-6.56,-6.13
281368,2091,0,169,99912,36.72,-6.53,-6.17
281410,1547,0,137,99912,35.00,-6.51,-6.14
281432,1262,0,120,99912,35.00,-6.51,-6.15
281454,1145,0,123,99912,35.00,-6.52,-6.14
281476,1299,0,139,99912,35.00,-6.53,-6.15
281498,1712,0,153,99912,35.00,-6.53,-6.09
281520,2134,0,167,99912,35.00,-6.51,-6.13
281542,2355,0,164,99912,35.00,-6.56,-6.15
281564,2531,0,169,99912,35.00,-6.52,-6.14
281586,2429,0,158,99912,35.00,-6.53,-6.11
281608,2022,0,147,99912,35.00,-6.54,-6.15
281650,1363,0,124,99912,35.00,-6.55,-6.17
281672,1321,0,123,99912,35.00,-6.56,-6.18
281694,1310,0,133,99912,35.00,-6.51,-6.12
281716,1619,0,140,99912,35.00,-6.53,-6.17
281738,1845,0,151,99912,35.00,-6.52,-6.14
281760,2223,0,166,99912,35.00,-6.55,-6.18
281782,2553,0,172,99912,35.00,-6.54,-6.15
281804,2502,0,167,99912,35.00,-6.50,-6.13
281826,2285,0,151,99912,35.00,-6.53,-6.18
281848,1883,0,137,99912,35.00,-6.55,-6.17
281870,1599,0,133,99912,35.00,-6.53,-6.17
281911,1357,0,124,99912,35.00,-6.54,-6.12
281933,1259,0,127,99912,35.00,-6.55,-6.17
281955,1419,0,138,99912,35.00,-6.51,-6.16
281977,1690,0,151,99912,35.00,-6.53,-6.14
281999,1929,0,157,99912,35.00,-6.48,-6.16
282021,2458,0,173,99912,35.00,-6.54,-6.14
282043,2471,0,167,99912,35.00,-6.54,-6.17
282065,2411,0,151,99912,35.00,-6.54,-6.15
282087,2091,0,141,99912,35.00,-6.55,-6.16
282109,1765,0,126,99912,35.00,-6.49,-6.12
282152,1395,0,125,99912,35.00,-6.48,-6.17
282174,1289,0,127,99912,35.00,-6.53,-6.15
282196,1560,0,138,99912,35.00,-6.55,-6.15
282218,1898,0,156,99912,35.00,-6.53,-6.18
282240,2253,0,168,99912,35.00,-6.52,-6.16
282262,2519,0,171,99912,35.00,-6.51,-6.15
282284,2573,0,167,99912,35.00,-6.52,-6.16
282306,2265,0,153,99912,35.00,-6.51,-6.17
282328,1889,0,141,99912,35.00,-6.49,-6.16
282350,1490,0,127,99912,35.00,-6.56,-6.16
282392,1271,0,125,99912,35.00,-6.51,-6.17
282414,1209,0,138,99912,35.00,-6.53,-6.14
282436,1547,0,151,99912,35.00,-6.53,-6.16
282458,1972,0,159,99912,35.00,-6.53,-6.15
282480,2376,0,167,99912,35.00,-6.52,-6.18
282502,2535,0,169,99912,35.00,-6.53,-6.15
282524,2553,0,165,99912,35.00,-6.50,-6.19
282546,2133,0,149,99912,35.00,-6.49,-6.16
282568,1767,0,134,99912,35.00,-6.54,-6.15
282590,1419,0,125,99912,35.00,-6.51,-6.12
282612,1273,0,125,99912,35.00,-6.56,-6.12
282653,1381,0,137,99912,35.00,-6.48,-6.20
282675,1439,0,141,99912,35.00,-6.53,-6.18
282697,1831,0,155,99912,35.00,-6.52,-6.15
282719,2213,0,169,99912,35.00,-6.53,-6.12
282741,2184,0,165,99912,35.00,-6.52,-6.17
282763,2360,0,168,99912,35.00,-6.51,-6.21
282785,2121,0,152,99912,35.00,-6.52,-6.15
282807,1719,0,140,99912,35.00,-6.51,-6.15
282829,1303,0,135,99912,35.00,-6.56,-6.13
282851,920,0,126,99912,35.00,-6.51,-6.18
282894,1134,0,137,99912,35.00,-6.53,-6.16
282916,1805,0,153,99912,35.00,-6.50,-6.14
282938,2088,0,165,99912,35.00,-6.50,-6.15
282960,2474,0,173,99912,35.00,-6.54,-6.16
282982,2921,0,174,99912,35.00,-6.49,-6.17
283403,2358,0,160,99912,36.54,-6.55,-6.16
283435,2129,0,149,99912,35.00,-6.53,-6.14
283457,2034,0,166,99912,35.00,-6.49,-6.14
283479,2409,0,170,99912,35.00,-6.54,-6.17
283501,2552,0,173,99912,35.00,-6.54,-6.14
283523,2422,0,159,99912,35.00,-6.55,-6.14
283545,2031,0,148,99912,35.00,-6.54,-6.16
283567,1603,0,139,99912,35.00,-6.52,-6.13
283589,1268,0,127,99912,35.00,-6.55,-6.19
283611,1093,0,135,99912,35.00,-6.52,-6.14
283633,1379,0,140,99912,35.00,-6.50,-6.12
283676,1804,0,154,99912,35.00,-6.53,-6.17
283698,2403,0,171,99912,35.00,-6.52,-6.12
283720,2777,0,179,99912,35.00,-6.50,-6.16
283742,2533,0,169,99912,35.00,-6.53,-6.15
283764,2219,0,158,99912,35.00,-6.54,-6.16
283786,1901,0,149,99912,35.00,-6.51,-6.11
283808,1221,0,127,99912,35.00,-6.48,-6.18
283830,1236,0,135,99912,35.00,-6.51,-6.17
283852,1516,0,140,99912,35.00,-6.49,-6.18
283874,1854,0,157,99912,35.00,-6.52,-6.13
283916,1939,0,167,99912,35.00,-6.53,-6.13
283938,2303,0,173,99912,35.00,-6.53,-6.07
283960,2443,0,171,99912,35.00,-6.56,-6.13
283982,2406,0,163,99912,35.00,-6.50,-6.16
284420,2066,0,149,99912,37.04,-6.56,-6.15
284458,2293,0,153,99912,35.00,-6.53,-6.17
284480,2437,0,165,99912,35.00,-6.54,-6.14
284502,2205,0,154,99912,35.00,-6.53,-6.17
284524,1848,0,143,99912,35.00,-6.54,-6.15
284546,1469,0,136,99912,35.00,-6.53,-6.14
284568,1279,0,133,99912,35.00,-6.53,-6.15
284590,1238,0,137,99912,35.00,-6.54,-6.15
284612,1469,0,147,99912,35.00,-6.52,-6.16
284634,1829,0,156,99912,35.00,-6.50,-6.13
284656,2197,0,165,99912,35.00,-6.54,-6.11
284698,2537,0,173,99912,35.00,-6.51,-6.16
284720,2527,0,166,99912,35.00,-6.53,-6.14
284742,2302,0,156,99912,35.00,-6.51,-6.12
284764,1866,0,141,99912,35.00,-6.53,-6.13
284786,1467,0,135,99912,35.00,-6.53,-6.13
284808,1513,0,141,99912,35.00,-6.56,-6.15
284830,1279,0,137,99912,35.00,-6.54,-6.13
284852,1513,0,143,99912,35.00,-6.55,-6.11
284874,1880,0,157,99912,35.00,-6.55,-6.16
284896,2333,0,168,99912,35.00,-6.51,-6.16
284918,2475,0,173,99912,35.00,-6.53,-6.16
284959,2543,0,167,99912,35.00,-6.52,-6.14
284981,2431,0,155,99912,35.00,-6.52,-6.17
285692,2005,0,147,99912,36.54,-6.51,-6.14
285721,2159,0,167,99912,35.00,-6.55,-6.15
285743,1817,0,137,99912,35.00,-6.50,-6.16
285765,1514,0,127,99912,35.00,-6.49,-6.16
285787,1289,0,133,99912,35.00,-6.54,-6.16
285809,1367,0,138,99912,35.00,-6.53,-6.17
285831,1593,0,149,99912,35.00,-6.53,-6.17
285853,2007,0,159,99912,35.00,-6.52,-6.14
285875,2315,0,164,99912,35.00,-6.54,-6.14
285897,2503,0,166,99912,35.00,-6.52,-6.11
285919,2507,0,163,99912,35.00,-6.58,-6.16
285961,2230,0,155,99912,35.00,-6.53,-6.14
285983,1797,0,139,99912,35.00,-6.50,-6.16
286709,1403,0,136,99912,36.54,-6.53,-6.15
286743,1757,0,152,99912,35.00,-6.53,-6.14
286765,1278,0,125,99912,35.00,-6.50,-6.16
286787,1279,0,134,99912,35.00,-6.52,-6.17
286809,1509,0,143,99912,35.00,-6.51,-6.13
286831,1890,0,153,99912,35.00,-6.49,-6.13
286853,2187,0,165,99912,35.00,-6.54,-6.18
286875,2455,0,167,99912,35.00,-6.53,-6.16
286897,2449,0,159,99912,35.00,-6.55,-6.16
286919,2221,0,151,99912,35.00,-6.55,-6.18
286941,2007,0,139,99912,35.00,-6.54,-6.16
286963,1373,0,123,99912,35.00,-6.51,-6.16
287727,1593,0,135,99912,37.10,-6.48,-6.17
287766,1711,0,149,99912,35.00,-6.53,-6.16
287788,1581,0,143,99912,35.00,-6.51,-6.16
287810,1869,0,154,99912,35.00,-6.53,-6.15
287832,2280,0,159,99912,35.00,-6.50,-6.15
287854,2461,0,163,99912,35.00,-6.50,-6.17
287876,2488,0,159,99912,35.00,-6.54,-6.15
287898,2185,0,149,99912,35.00,-6.53,-6.16
287920,1741,0,137,99912,35.00,-6.54,-6.13
287942,1459,0,133,99912,35.00,-6.53,-6.16
287964,1303,0,123,99912,35.00,-6.55,-6.14
287986,1363,0,138,99912,35.00,-6.56,-6.16
288027,1705,0,149,99912,35.00,-6.50,-6.16
288049,1800,0,149,99912,35.00,-6.50,-6.15
288071,2149,0,166,99912,35.00,-6.52,-6.14
288093,2439,0,167,99912,35.00,-6.51,-6.14
288115,2483,0,168,99912,35.00,-6.51,-6.14
288137,2339,0,155,99912,35.00,-6.52,-6.11
288159,1910,0,141,99912,35.00,-6.51,-6.16
288181,1581,0,127,99912,35.00,-6.52,-6.16
288203,1297,0,125,99912,35.00,-6.52,-6.15
288225,1322,0,133,99912,35.00,-6.50,-6.17
288267,1587,0,143,99912,35.00,-6.54,-6.10
288289,1846,0,154,99912,35.00,-6.54,-6.13
288311,2165,0,163,99912,35.00,-6.54,-6.16
288333,2364,0,167,99912,35.00,-6.56,-6.13
288355,2547,0,163,99912,35.00,-6.51,-6.14
288377,2285,0,151,99912,35.00,-6.54,-6.13
288399,1899,0,138,99912,35.00,-6.52,-6.17
288421,1403,0,124,99912,35.00,-6.55,-6.11
288443,1263,0,123,99912,35.00,-6.52,-6.13
288465,1275,0,135,99912,35.00,-6.45,-6.12
288487,1533,0,147,99912,35.00,-6.55,-6.15
288528,1883,0,157,99912,35.00,-6.50,-6.14
288550,2019,0,165,99912,35.00,-6.55,-6.12
288572,2444,0,169,99912,35.00,-6.50,-6.15
288594,2515,0,164,99912,35.00,-6.51,-6.13
288616,2421,0,154,99912,35.00,-6.57,-6.16
288638,1994,0,145,99912,35.00,-6.54,-6.20
288660,1621,0,133,99912,35.00,-6.52,-6.16
288682,1289,0,125,99912,35.00,-6.54,-6.17
288704,1267,0,135,99912,35.00,-6.53,-6.15
288726,1499,0,141,99912,35.00,-6.52,-6.18
288748,1813,0,151,99912,35.00,-6.50,-6.15
288789,2213,0,167,99912,35.00,-6.50,-6.16
288811,2383,0,166,99912,35.00,-6.53,-6.13
288833,2597,0,169,99912,35.00,-6.55,-6.14
288855,2606,0,163,99912,35.00,-6.48,-6.13
288877,2101,0,148,99912,35.00,-6.56,-6.12
288899,1737,0,135,99912,35.00,-6.52,-6.16
288921,1387,0,134,99912,35.00,-6.54,-6.15
288943,1223,0,134,99912,35.00,-6.52,-6.15
288965,1367,0,143,99912,35.00,-6.54,-6.15
288987,1720,0,152,99912,35.00,-6.51,-6.17
289029,2025,0,165,99912,35.00,-6.56,-6.16
289051,2483,0,171,99912,35.00,-6.52,-6.11
289073,2541,0,167,99912,35.00,-6.54,-6.12
289095,2421,0,159,99912,35.00,-6.53,-6.15
289117,2132,0,143,99912,35.00,-6.54,-6.16
289139,1581,0,135,99912,35.00,-6.53,-6.15
289161,1399,0,133,99912,35.00,-6.50,-6.17
289183,1299,0,135,99912,35.00,-6.56,-6.15
289205,1460,0,143,99912,35.00,-6.56,-6.13
289227,1753,0,153,99912,35.00,-6.56,-6.16
289249,1957,0,159,99912,35.00,-6.51,-6.18
289290,2413,0,172,99912,35.00,-6.52,-6.15
289312,2520,0,169,99912,35.00,-6.53,-6.15
289334,2476,0,167,99912,35.00,-6.53,-6.15
289356,2175,0,151,99912,35.00,-6.51,-6.12
289378,1820,0,141,99912,35.00,-6.52,-6.13
289400,1711,0,137,99912,35.00,-6.51,-6.13
289422,1309,0,127,99912,35.00,-6.51,-6.15
289444,1389,0,139,99912,35.00,-6.49,-6.19
289466,1604,0,151,99912,35.00,-6.54,-6.14
289488,1967,0,159,99912,35.00,-6.54,-6.16
289531,2314,0,167,99912,35.00,-6.53,-6.15
289553,2453,0,159,99912,35.00,-6.51,-6.19
289575,2330,0,151,99912,35.00,-6.55,-6.14
289597,1925,0,140,99912,35.00,-6.52,-6.13
289619,1503,0,135,99912,35.00,-6.52,-6.11
289641,1157,0,133,99912,35.00,-6.55,-6.18
289663,1359,0,137,99912,35.00,-6.52,-6.14
289685,1549,0,143,99912,35.00,-6.53,-6.17
289707,1918,0,158,99912,35.00,-6.52,-6.17
289729,2263,0,167,99912,35.00,-6.51,-6.13
289771,2509,0,171,99912,35.00,-6.53,-6.16
289793,2318,0,161,99912,35.00,-6.53,-6.15
289815,2251,0,157,99912,35.00,-6.52,-6.12
289837,2013,0,147,99912,35.00,-6.52,-6.14
289859,1460,0,133,99912,35.00,-6.54,-6.13
289881,1175,0,133,99912,35.00,-6.54,-6.15
289903,1331,0,141,99912,35.00,-6.53,-6.17
289925,1557,0,143,99912,35.00,-6.54,-6.15
289947,1977,0,155,99912,35.00,-6.51,-6.16
289969,2315,0,164,99912,35.00,-6.53,-6.16
289991,2511,0,167,99912,35.00,-6.50,-6.15
290032,2571,0,163,99912,35.00,-6.55,-6.14
290054,2419,0,153,99912,35.00,-6.53,-6.18
290076,1835,0,140,99912,35.00,-6.51,-6.13
290098,1631,0,137,99912,35.00,-6.53,-6.14
290120,1307,0,125,99912,35.00,-6.52,-6.17
290142,1285,0,135,99912,35.00,-6.52,-6.14
290164,1516,0,149,99912,35.00,-6.52,-6.14
290186,1850,0,156,99912,35.00,-6.55,-6.13
290208,2171,0,167,99912,35.00,-6.52,-6.12
290230,2485,0,169,99912,35.00,-6.56,-6.12
290273,2549,0,168,99912,35.00,-6.51,-6.20
290295,2052,0,141,99912,35.00,-6.54,-6.13
290317,1683,0,137,99912,35.00,-6.54,-6.13
290339,1364,0,136,99912,35.00,-6.54,-6.17
290361,1308,0,125,99912,35.00,-6.50,-6.13
290383,1361,0,139,99912,35.00,-6.55,-6.12
290405,1759,0,150,99912,35.00,-6.54,-6.14
290427,2104,0,171,99735,35.00,-6.52,-6.13
290449,2405,0,169,99539,35.00,-6.56,-6.16
290471,2473,0,165,99609,35.00,-6.55,-6.18
290513,2375,0,156,99609,35.00,-6.55,-6.14
290535,1979,0,142,99609,35.00,-6.55,-6.16
290557,1553,0,140,99609,35.00,-6.51,-6.11
290579,1304,0,124,99609,35.00,-6.52,-6.16
290601,1307,0,135,99609,35.00,-6.50,-6.14
290623,1525,0,146,99609,35.00,-6.52,-6.12
290645,1821,0,151,99609,35.00,-6.49,-6.15
290667,2069,0,159,99609,35.00,-6.53,-6.12
290689,2351,0,171,99609,35.00,-6.54,-6.15
290711,2424,0,157,99609,35.00,-6.53,-6.12
290733,2793,0,164,99609,35.00,-6.52,-6.11
290774,1555,0,123,99609,35.00,-6.57,-6.16
290796,1349,0,123,99609,35.00,-6.55,-6.17
290818,999,0,121,99609,35.00,-6.59,-6.18
290840,981,0,133,99609,35.00,-6.50,-6.15
290862,1179,0,141,99609,35.00,-6.52,-6.16
290884,1617,0,153,99609,35.00,-6.54,-6.12
290906,2003,0,166,99609,35.00,-6.50,-6.10
290928,2355,0,171,99609,35.00,-6.55,-6.13
290950,2540,0,171,99609,35.00,-6.56,-6.10
290972,2485,0,167,99609,35.00,-6.53,-6.16
291542,2021,0,149,99609,37.07,-6.52,-6.14
291576,1880,0,157,99609,35.00,-6.51,-6.14
291598,1179,0,123,99609,35.00,-6.52,-6.15
291620,1251,0,137,99609,35.00,-6.54,-6.17
291642,1497,0,143,99609,35.00,-6.53,-6.15
291664,1847,0,157,99609,35.00,-6.51,-6.15
291686,2253,0,165,99609,35.00,-6.50,-6.17
291708,2494,0,169,99609,35.00,-6.51,-6.11
291730,2509,0,168,99609,35.00,-6.50,-6.13
291752,2215,0,152,99609,35.00,-6.52,-6.14
291774,1799,0,141,99609,35.00,-6.53,-6.18
291817,1385,0,125,99609,35.00,-6.53,-6.13
291839,1288,0,127,99609,35.00,-6.50,-6.13
291861,1433,0,143,99609,35.00,-6.53,-6.16
291883,1767,0,154,99609,35.00,-6.53,-6.18
291905,2142,0,167,99609,35.00,-6.55,-6.13
291927,2431,0,169,99609,35.00,-6.55,-6.18
291949,2501,0,167,99609,35.00,-6.53,-6.19
291971,2349,0,159,99609,35.00,-6.51,-6.15
291993,1949,0,141,99609,35.00,-6.51,-6.14
292560,1555,0,135,99609,36.81,-6.54,-6.15
292599,1803,0,155,99609,35.00,-6.55,-6.14
292621,1671,0,149,99609,35.00,-6.55,-6.16
292643,2001,0,164,99609,35.00,-6.54,-6.13
292665,2409,0,169,99609,35.00,-6.49,-6.19
292687,2493,0,171,99609,35.00,-6.50,-6.18
292709,2429,0,159,99609,35.00,-6.51,-6.15
292731,2125,0,153,99609,35.00,-6.52,-6.17
292753,1687,0,139,99609,35.00,-6.53,-6.16
292775,1293,0,127,99609,35.00,-6.53,-6.15
292797,1255,0,127,99609,35.00,-6.53,-6.12
292839,1288,0,137,99609,35.00,-6.52,-6.15
292861,1654,0,149,99609,35.00,-6.51,-6.18
292883,2075,0,163,99609,35.00,-6.55,-6.12
292905,2355,0,171,99609,35.00,-6.55,-6.14
292927,2539,0,169,99609,35.00,-6.54,-6.14
292949,2381,0,157,99609,35.00,-6.52,-6.14
292971,2002,0,141,99609,35.00,-6.50,-6.15
292993,1597,0,135,99609,35.00,-6.52,-6.16
293577,1263,0,107,99609,36.71,-6.50,-6.20
293608,1499,0,141,99609,35.00,-6.53,-6.21
293630,1913,0,139,99609,35.00,-6.55,-6.17
293652,1581,0,136,99609,35.00,-6.50,-6.16
293674,1309,0,127,99609,35.00,-6.51,-6.12
293696,1237,0,138,99609,35.00,-6.52,-6.11
293718,1428,0,146,99609,35.00,-6.52,-6.13
293740,1773,0,155,99609,35.00,-6.54,-6.18
293782,2107,0,165,99609,35.00,-6.52,-6.15
293804,2484,0,169,99609,35.00,-6.50,-6.15
293826,2458,0,167,99609,35.00,-6.54,-6.15
293848,2367,0,163,99609,35.00,-6.54,-6.15
293870,1928,0,147,99609,35.00,-6.54,-6.17
293892,1407,0,135,99609,35.00,-6.56,-6.17
293914,1305,0,135,99609,35.00,-6.51,-6.15
293936,1369,0,139,99609,35.00,-6.50,-6.14
293958,1529,0,148,99609,35.00,-6.54,-6.16
293980,649,0,137,99609,35.00,-6.55,-6.13
294022,2317,0,169,99609,35.00,-6.61,-6.19
294044,2531,0,166,99609,35.00,-6.56,-6.14
294066,2645,0,163,99609,35.00,-6.55,-6.20
294088,2361,0,151,99609,35.00,-6.48,-6.16
294110,1948,0,138,99609,35.00,-6.54,-6.16
294132,1515,0,133,99609,35.00,-6.53,-6.12
294154,1324,0,127,99609,35.00,-6.54,-6.17
294176,1453,0,139,99609,35.00,-6.52,-6.15
294198,1651,0,147,99609,35.00,-6.52,-6.11
294220,2031,0,166,99609,35.00,-6.56,-6.18
294242,2345,0,165,99609,35.00,-6.52,-6.16
294283,2569,0,169,99609,35.00,-6.52,-6.15
294305,2589,0,169,99609,35.00,-6.55,-6.13
294327,2351,0,153,99609,35.00,-6.56,-6.22
294349,1913,0,141,99609,35.00,-6.54,-6.16
294371,1497,0,127,99609,35.00,-6.53,-6.12
294393,1615,0,135,99609,35.00,-6.50,-6.12
294415,1150,0,125,99609,35.00,-6.50,-6.14
294437,1394,0,139,99609,35.00,-6.56,-6.19
294459,1673,0,153,99609,35.00,-6.56,-6.11
294481,1895,0,154,99609,35.00,-6.55,-6.16
294503,2173,0,165,99609,35.00,-6.57,-6.14
294544,2455,0,165,99609,35.00,-6.55,-6.16
294566,2501,0,157,99609,35.00,-6.53,-6.17
294588,2161,0,147,99609,35.00,-6.56,-6.17
294610,1759,0,139,99609,35.00,-6.49,-6.15
294632,1307,0,127,99609,35.00,-6.54,-6.18
294654,1333,0,133,99609,35.00,-6.53,-6.13
294676,1542,0,143,99609,35.00,-6.52,-6.13
294698,1855,0,153,99609,35.00,-6.56,-6.15
294720,2188,0,167,99609,35.00,-6.51,-6.14
294742,2597,0,170,99609,35.00,-6.52,-6.14
294784,2568,0,171,99609,35.00,-6.56,-6.14
294806,2429,0,156,99609,35.00,-6.56,-6.14
294828,2141,0,146,99609,35.00,-6.51,-6.16
294850,1635,0,132,99609,35.00,-6.54,-6.11
294872,1197,0,119,99609,35.00,-6.51,-6.14
294894,1115,0,136,99609,35.00,-6.53,-6.13
294916,1316,0,137,99609,35.00,-6.50,-6.17
294938,1599,0,146,99609,35.00,-6.54,-6.16
294960,1947,0,158,99609,35.00,-6.56,-6.14
294982,2303,0,167,99609,35.00,-6.51,-6.12
295358,2395,0,164,99609,36.51,-6.52,-6.15
295386,2228,0,167,99609,35.00,-6.50,-6.16
295408,1785,0,136,99609,35.00,-6.57,-6.13
295430,1426,0,125,99609,35.00,-6.52,-6.12
295452,1311,0,132,99609,35.00,-6.54,-6.13
295474,1297,0,137,99609,35.00,-6.52,-6.17
295496,1555,0,141,99609,35.00,-6.52,-6.12
295518,1938,0,155,99609,35.00,-6.50,-6.15
295540,2283,0,167,99609,35.00,-6.50,-6.16
295562,2503,0,167,99609,35.00,-6.54,-6.16
295584,2507,0,164,99609,35.00,-6.56,-6.10
295606,2189,0,151,99609,35.00,-6.53,-6.17
295647,1832,0,137,99609,35.00,-6.54,-6.18
295669,1603,0,136,99609,35.00,-6.50,-6.16
295691,1368,0,125,99609,35.00,-6.52,-6.16
295713,1260,0,133,99609,35.00,-6.53,-6.15
295735,1501,0,137,99609,35.00,-6.52,-6.16
295757,1798,0,153,99609,35.00,-6.51,-6.15
295779,2208,0,167,99609,35.00,-6.50,-6.11
295801,2513,0,169,99609,35.00,-6.54,-6.16
295823,2587,0,166,99609,35.00,-6.53,-6.15
295845,2357,0,153,99609,35.00,-6.50,-6.13
295888,1883,0,139,99609,35.00,-6.54,-6.16
295910,1517,0,128,99609,35.00,-6.53,-6.11
295932,1361,0,134,99609,35.00,-6.52,-6.16
295954,1367,0,135,99609,35.00,-6.54,-6.18
295976,1555,0,143,99609,35.00,-6.49,-6.12
295998,1982,0,159,99609,35.00,-6.54,-6.17
296020,2155,0,159,99609,35.00,-6.53,-6.12
296042,2363,0,167,99609,35.00,-6.51,-6.14
296064,2328,0,157,99609,35.00,-6.52,-6.16
296086,1945,0,147,99609,35.00,-6.52,-6.18
296128,1509,0,133,99609,35.00,-6.58,-6.11
296150,1133,0,125,99609,35.00,-6.54,-6.16
296172,1159,0,133,99609,35.00,-6.50,-6.12
296194,1337,0,139,99609,35.00,-6.52,-6.13
296216,1783,0,163,99609,35.00,-6.53,-6.13
296238,2253,0,169,99609,35.00,-6.53,-6.15
296260,2391,0,168,99609,35.00,-6.53,-6.13
296282,2535,0,164,99609,35.00,-6.54,-6.14
296304,2623,0,165,99609,35.00,-6.55,-6.11
296326,2186,0,143,99609,35.00,-6.54,-6.12
296348,1567,0,125,99609,35.00,-6.51,-6.14
296389,1405,0,127,99609,35.00,-6.54,-6.14
296411,1301,0,125,99609,35.00,-6.51,-6.13
296433,1381,0,137,99609,35.00,-6.52,-6.14
296455,1592,0,149,99609,35.00,-6.54,-6.17
296477,2073,0,165,99609,35.00,-6.51,-6.12
296499,2187,0,165,99609,35.00,-6.54,-6.13
296521,2681,0,169,99609,35.00,-6.56,-6.19
296543,2429,0,159,99609,35.00,-6.50,-6.13
296565,2105,0,149,99609,35.00,-6.51,-6.16
296587,1719,0,137,99609,35.00,-6.53,-6.15
296629,1404,0,127,99609,35.00,-6.50,-6.12
296651,1251,0,133,99609,35.00,-6.51,-6.14
296673,1465,0,141,99609,35.00,-6.55,-6.17
296695,1736,0,153,99609,35.00,-6.52,-6.13
296717,2118,0,163,99609,35.00,-6.53,-6.16
296739,2379,0,166,99609,35.00,-6.51,-6.16
296761,2553,0,167,99609,35.00,-6.53,-6.14
296783,2332,0,154,99609,35.00,-6.48,-6.11
296805,2009,0,142,99609,35.00,-6.51,-6.12
296827,1621,0,135,99609,35.00,-6.52,-6.13
296849,1311,0,131,99609,35.00,-6.50,-6.16
296890,1308,0,133,99609,35.00,-6.52,-6.14
296912,1271,0,136,99609,35.00,-6.51,-6.20
296934,1497,0,147,99609,35.00,-6.56,-6.16
296956,2037,0,159,99609,35.00,-6.54,-6.17
296978,2310,0,162,99609,35.00,-6.50,-6.15
297393,2527,0,169,99609,36.77,-6.53,-6.13
297432,2535,0,173,99609,35.00,-6.53,-6.15
297454,1491,0,137,99609,35.00,-6.54,-6.10
297476,1613,0,152,99609,35.00,-6.51,-6.10
297498,2283,0,169,99609,35.00,-6.56,-6.14
297520,2275,0,167,99609,35.00,-6.51,-6.09
297542,2341,0,160,99609,35.00,-6.51,-6.13
297564,1811,0,143,99609,35.00,-6.55,-6.14
297586,1327,0,133,99609,35.00,-6.59,-6.15
297608,1179,0,133,99609,35.00,-6.54,-6.19
297630,1012,0,133,99609,35.00,-6.54,-6.15
297672,1579,0,148,99609,35.00,-6.52,-6.11
297694,1855,0,153,99609,35.00,-6.54,-6.15
297716,2301,0,169,99609,35.00,-6.51,-6.07
297738,2569,0,171,99609,35.00,-6.54,-6.14
297760,2569,0,169,99609,35.00,-6.51,-6.13
297782,2267,0,155,99609,35.00,-6.58,-6.17
297804,1939,0,143,99609,35.00,-6.54,-6.14
297826,1481,0,134,99609,35.00,-6.54,-6.12
297848,1273,0,135,99609,35.00,-6.54,-6.13
297870,1269,0,136,99609,35.00,-6.54,-6.10
297892,1507,0,145,99609,35.00,-6.56,-6.14
297933,1871,0,157,99609,35.00,-6.55,-6.11
297955,2089,0,164,99609,35.00,-6.56,-6.15
297977,2359,0,171,99609,35.00,-6.49,-6.13
297999,2427,0,169,99609,35.00,-6.52,-6.10
298021,2493,0,163,99609,35.00,-6.55,-6.13
298043,1983,0,152,99609,35.00,-6.56,-6.13
298065,1565,0,135,99609,35.00,-6.55,-6.13
298087,1303,0,136,99609,35.00,-6.52,-6.12
298109,1261,0,137,99609,35.00,-6.53,-6.14
298131,1443,0,151,99609,35.00,-6.56,-6.12
298174,1694,0,153,99609,35.00,-6.52,-6.14
298196,2345,0,169,99609,35.00,-6.50,-6.15
298218,2475,0,168,99609,35.00,-6.52,-6.10
298240,2420,0,165,99609,35.00,-6.54,-6.08
298262,2185,0,151,99609,35.00,-6.55,-6.09
298284,1747,0,139,99609,35.00,-6.53,-6.13
298306,1336,0,127,99609,35.00,-6.55,-6.13
298328,1223,0,136,99609,35.00,-6.52,-6.11
298350,1284,0,141,99609,35.00,-6.54,-6.10
298372,1571,0,151,99609,35.00,-6.53,-6.11
298414,2011,0,159,99609,35.00,-6.57,-6.07
298436,2405,0,169,99609,35.00,-6.49,-6.08
298458,2302,0,169,99609,35.00,-6.51,-6.12
298480,2379,0,167,99609,35.00,-6.52,-6.08
298502,1959,0,147,99609,35.00,-6.49,-6.10
298524,1495,0,134,99609,35.00,-6.52,-6.13
298546,1175,0,126,99609,35.00,-6.53,-6.12
298568,1161,0,135,99609,35.00,-6.53,-6.11
298590,1240,0,141,99609,35.00,-6.56,-6.07
298612,1549,0,148,99609,35.00,-6.52,-6.18
298634,2031,0,165,99609,35.00,-6.55,-6.12
298675,2444,0,178,99609,35.00,-6.60,-6.10
298697,2621,0,174,99609,35.00,-6.54,-6.12
298719,2547,0,165,99609,35.00,-6.55,-6.12
298741,2339,0,154,99609,35.00,-6.55,-6.14
298763,1833,0,143,99609,35.00,-6.58,-6.13
298785,1437,0,132,99609,35.00,-6.53,-6.14
298807,1331,0,133,99609,35.00,-6.54,-6.12
298829,1311,0,140,99609,35.00,-6.54,-6.13
298851,1657,0,151,99609,35.00,-6.57,-6.11
298873,2087,0,159,99609,35.00,-6.53,-6.12
298916,2375,0,169,99609,35.00,-6.56,-6.11
298938,2643,0,173,99609,35.00,-6.58,-6.13
298960,2459,0,159,99609,35.00,-6.51,-6.14
298982,1823,0,141,99609,35.00,-6.54,-6.08
299428,1684,0,137,99609,37.02,-6.50,-6.11
299457,1849,0,149,99609,35.00,-6.56,-6.09
299479,2567,0,158,99609,35.00,-6.51,-6.11
299501,2133,0,148,99609,35.00,-6.56,-6.09
299523,1636,0,133,99609,35.00,-6.56,-6.08
299545,1303,0,133,99609,35.00,-6.58,-6.14
299567,1301,0,135,99609,35.00,-6.56,-6.13
299589,1399,0,141,99609,35.00,-6.53,-6.13
299611,1671,0,153,99609,35.00,-6.54,-6.11
299633,2118,0,167,99609,35.00,-6.53,-6.07
299655,2317,0,168,99609,35.00,-6.55,-6.16
299698,2431,0,165,99609,35.00,-6.57,-6.11
299720,2103,0,147,99609,35.00,-6.54,-6.10
299742,1673,0,138,99609,35.00,-6.55,-6.07
299764,1349,0,127,99609,35.00,-6.55,-6.09
299786,1251,0,135,99609,35.00,-6.51,-6.08
299808,1479,0,143,99609,35.00,-6.50,-6.10
299830,1787,0,151,99609,35.00,-6.52,-6.12
299852,2007,0,159,99609,35.00,-6.55,-6.12
299874,2315,0,168,99609,35.00,-6.50,-6.12
299896,2461,0,168,99609,35.00,-6.52,-6.13
299938,2440,0,159,99609,35.00,-6.52,-6.09
299960,1973,0,147,99609,35.00,-6.54,-6.08
299982,1561,0,136,99609,35.00,-6.57,-6.08
300699,1357,0,135,99609,36.93,-6.56,-6.07
300740,1468,0,133,99609,35.00,-6.54,-6.16
300762,1158,0,120,99609,35.00,-6.51,-6.13
300784,1107,0,125,99609,35.00,-6.54,-6.15
300806,1229,0,137,99609,35.00,-6.56,-6.15
300828,1430,0,149,99609,35.00,-6.55,-6.13
300850,1839,0,164,99609,35.00,-6.56,-6.13
300872,2191,0,169,99609,35.00,-6.55,-6.14
300894,2579,0,175,99609,35.00,-6.54,-6.12
300916,2619,0,171,99609,35.00,-6.55,-6.13
300938,2141,0,150,99609,35.00,-6.55,-6.12
300960,2001,0,143,99609,35.00,-6.55,-6.10
301717,1579,0,135,99609,36.50,-6.53,-6.08
301743,1255,0,133,99609,35.00,-6.58,-6.12
301765,0,0,121,99609,35.00,-6.56,-6.14
301787,105,0,138,99609,35.00,-6.54,-6.12
301809,1553,0,167,99609,35.00,-6.60,-6.15
301831,2504,0,181,99609,35.00,-6.56,-6.14
301853,2570,0,178,99609,35.00,-6.54,-6.11
301875,2683,0,167,99609,35.00,-6.60,-6.13
301897,2253,0,152,99609,35.00,-6.83,-6.21
301919,1939,0,137,99609,35.00,-6.57,-6.16
301941,1335,0,125,99609,35.00,-6.56,-6.13
301984,1123,0,119,99609,35.00,-6.57,-6.15
302734,1457,0,141,99609,36.21,-6.56,-6.15
302766,2201,0,143,99609,35.00,-6.55,-6.14
302788,2077,0,167,99609,35.00,-6.56,-6.14
302810,2585,0,175,99609,35.00,-6.54,-6.15
302832,2844,0,179,99609,35.00,-6.54,-6.12
302854,2611,0,164,99609,35.00,-6.53,-6.15
302876,2065,0,143,99609,35.00,-6.54,-6.11
302898,1682,0,135,99609,35.00,-6.55,-6.14
302920,1094,0,122,99609,35.00,-6.52,-6.16
302942,968,0,125,99609,35.00,-6.56,-6.15
302964,1173,0,139,99609,35.00,-6.57,-6.13
303506,1641,0,155,99609,37.01,-6.55,-6.16
303548,2423,0,176,99609,35.00,-6.50,-6.15
303570,2921,0,182,99609,35.00,-6.52,-6.13
303592,2613,0,172,99609,35.00,-6.58,-6.12
303614,2351,0,163,99609,35.00,-6.59,-6.10
303636,1819,0,139,99609,35.00,-6.57,-6.13
303658,1353,0,123,99609,35.00,-6.53,-6.15
303680,1011,0,122,99609,35.00,-6.50,-6.11
303702,885,0,126,99609,35.00,-6.54,-6.15
303724,1221,0,146,99609,35.00,-6.55,-6.14
303746,1711,0,159,99609,35.00,-6.52,-6.18
303788,2430,0,179,99609,35.00,-6.53,-6.19
303810,2607,0,172,99609,35.00,-6.55,-6.12
303832,2633,0,167,99609,35.00,-6.59,-6.16
303854,2227,0,152,99609,35.00,-6.55,-6.16
303876,1755,0,139,99609,35.00,-6.53,-6.16
303898,1234,0,125,99609,35.00,-6.57,-6.16
303920,1063,0,125,99609,35.00,-6.55,-6.15
303942,1163,0,137,99609,35.00,-6.55,-6.15
303964,1499,0,151,99609,35.00,-6.52,-6.12
303986,2005,0,167,99609,35.00,-6.53,-6.12
304515,2473,0,179,99609,37.11,-6.54,-6.17
304550,1117,0,125,99609,35.00,-6.56,-6.14
304572,2269,0,153,99609,35.00,-6.52,-6.16
304594,1653,0,125,99609,35.00,-6.55,-6.18
304616,1287,0,120,99609,35.00,-6.57,-6.11
304638,1061,0,121,99609,35.00,-6.57,-6.14
304660,991,0,127,99609,35.00,-6.51,-6.17
304682,1438,0,148,99609,35.00,-6.55,-6.16
304704,1900,0,157,99609,35.00,-6.55,-6.13
304726,2259,0,167,99609,35.00,-6.58,-6.15
304748,2913,0,174,99609,35.00,-6.56,-6.15
304770,2809,0,167,99609,35.00,-6.55,-6.19
304811,2156,0,147,99609,35.00,-6.58,-6.18
304833,1691,0,138,99609,35.00,-6.51,-6.09
304855,1123,0,124,99609,35.00,-6.54,-6.12
304877,1099,0,127,99609,35.00,-6.55,-6.17
304899,949,0,127,99609,35.00,-6.53,-6.15
304921,1229,0,136,99609,35.00,-6.58,-6.14
304943,1821,0,157,99609,35.00,-6.50,-6.12
304965,2328,0,171,99609,35.00,-6.52,-6.17
304987,2649,0,178,99609,35.00,-6.55,-6.11
305533,2941,0,175,99609,36.67,-6.54,-6.13
305573,1405,0,124,99609,35.00,-6.54,-6.14
305595,1574,0,134,99609,35.00,-6.57,-6.11
305617,1293,0,127,99609,35.00,-6.53,-6.16
305639,1386,0,137,99609,35.00,-6.53,-6.15
305661,1041,0,148,99609,35.00,-6.54,-6.19
305683,1620,0,163,99609,35.00,-6.55,-6.14
305705,2415,0,175,99609,35.00,-6.55,-6.16
305727,2675,0,180,99609,35.00,-6.54,-6.16
305749,2701,0,170,99609,35.00,-6.57,-6.19
305771,2183,0,153,99609,35.00,-6.54,-6.18
305814,1717,0,139,99609,35.00,-6.50,-6.15
305836,923,0,121,99609,35.00,-6.55,-6.14
305858,1446,0,137,99609,35.00,-6.56,-6.15
305880,1260,0,137,99609,35.00,-6.53,-6.17
305902,1817,0,159,99609,35.00,-6.54,-6.16
305924,2015,0,169,99609,35.00,-6.55,-6.15
305946,2477,0,181,99609,35.00,-6.53,-6.16
305968,2587,0,169,99609,35.00,-6.53,-6.14
305990,2442,0,159,99609,35.00,-6.53,-6.13
306550,1789,0,140,99609,37.01,-6.54,-6.18
306580,2004,0,135,99609,35.00,-6.55,-6.15
306602,3339,0,181,99609,35.00,-6.55,-6.14
306624,4095,0,181,99609,35.00,-6.56,-6.16
306646,4095,0,182,99609,35.00,-6.53,-6.16
306668,4095,0,174,99609,35.00,-6.56,-6.16
306690,4095,0,170,99609,35.00,-6.54,-6.16
306712,4095,0,173,99609,35.00,-6.56,-6.16
306734,1453,0,119,99609,35.00,-6.55,-6.18
306776,0,0,121,99609,35.00,-6.52,-6.18
306798,0,0,135,99609,35.00,-6.54,-6.16
306820,1531,0,163,99609,35.00,-6.54,-6.14
306842,1943,0,169,99609,35.00,-6.54,-6.16
306864,1365,0,156,99609,35.00,-6.55,-6.12
306886,74,0,141,99609,35.00,-6.49,-6.18
306908,511,0,149,99609,35.00,-6.48,-6.18
306930,703,0,141,99609,35.00,-6.51,-6.18
