timestamp,ecg,gsr,gas,pulse,temp,acc_x,acc_y
945752,1919,0,137,0,35.00,-6.23,-6.53
945774,1789,0,157,0,35.00,-6.22,-6.56
945796,2104,0,187,0,35.00,-6.24,-6.53
945818,2707,0,219,0,35.00,-6.24,-6.55
945840,0,0,220,0,35.00,-6.27,-6.57
945862,2523,0,237,0,35.00,-6.26,-6.53
945884,2074,0,175,0,35.00,-6.21,-6.55
945906,675,0,159,0,35.00,-6.21,-6.57
945928,0,0,163,0,35.00,-6.20,-6.62
945950,1148,0,159,0,35.00,-6.25,-6.59
945993,1379,0,157,0,35.00,-6.24,-6.56
946576,3007,0,183,0,34.27,-6.24,-6.57
946614,2693,0,205,0,35.00,-6.22,-6.63
946636,1943,0,181,0,35.00,-6.19,-6.52
946658,2763,0,212,0,35.00,-6.24,-6.57
946680,2878,0,213,0,35.00,-6.29,-6.60
946702,1821,0,188,0,35.00,-6.23,-6.57
946724,1271,0,174,0,35.00,-6.25,-6.55
946746,767,0,149,0,35.00,-6.22,-6.59
946768,979,0,151,0,35.00,-6.20,-6.59
946790,1596,0,157,0,35.00,-6.22,-6.59
946812,2129,0,179,0,35.00,-6.22,-6.50
946855,2835,0,191,0,35.00,-6.23,-6.55
946877,3390,0,213,0,35.00,-6.23,-6.56
946899,3188,0,211,0,35.00,-6.27,-6.58
946921,2394,0,197,0,35.00,-6.25,-6.53
946943,1273,0,157,0,35.00,-6.25,-6.59
946965,682,0,141,0,35.00,-6.19,-6.68
946987,297,0,141,0,35.00,-6.36,-6.63
947591,221,0,155,0,33.90,-6.31,-6.62
947622,3099,0,206,0,35.00,-6.25,-6.53
947644,1208,0,159,0,35.00,-6.25,-6.60
947666,997,0,165,0,35.00,-6.24,-6.55
947688,1447,0,169,0,35.00,-6.27,-6.57
947710,1747,0,173,0,35.00,-6.23,-6.54
947732,2183,0,197,0,35.00,-6.24,-6.59
947754,2284,0,218,0,35.00,-6.23,-6.59
947797,2123,0,199,0,35.00,-6.23,-6.58
947819,1583,0,173,0,35.00,-6.25,-6.56
947841,1201,0,172,0,35.00,-6.24,-6.55
947863,1003,0,159,0,35.00,-6.24,-6.57
947885,1149,0,163,0,35.00,-6.21,-6.56
947907,1555,0,172,0,35.00,-6.27,-6.56
947929,2103,0,187,0,35.00,-6.26,-6.55
947951,2471,0,198,0,35.00,-6.23,-6.49
947973,2467,0,210,0,35.00,-6.22,-6.54
947995,2343,0,189,0,35.00,-6.26,-6.57
948037,2131,0,192,0,35.00,-6.27,-6.58
948059,1755,0,169,0,35.00,-6.22,-6.53
948081,1339,0,170,0,35.00,-6.23,-6.56
948103,1132,0,180,0,35.00,-6.25,-6.55
948125,1255,0,165,0,35.00,-6.24,-6.55
948147,1637,0,169,0,35.00,-6.24,-6.55
948169,2035,0,184,0,35.00,-6.24,-6.59
948191,2247,0,184,0,35.00,-6.23,-6.60
948213,2287,0,188,0,35.00,-6.27,-6.49
948235,2167,0,185,0,35.00,-6.25,-6.56
948278,1839,0,182,0,35.00,-6.24,-6.56
948300,1529,0,175,0,35.00,-6.23,-6.60
948322,1237,0,160,0,35.00,-6.24,-6.56
948344,1142,0,164,0,35.00,-6.26,-6.56
948366,1449,0,167,0,35.00,-6.21,-6.57
948388,1897,0,184,0,35.00,-6.24,-6.56
948410,2317,0,187,0,35.00,-6.22,-6.61
948432,2451,0,191,0,35.00,-6.22,-6.54
948454,2357,0,189,0,35.00,-6.24,-6.55
948476,2274,0,180,0,35.00,-6.23,-6.54
948518,2009,0,182,0,35.00,-6.22,-6.54
948540,1471,0,169,0,35.00,-6.22,-6.54
948562,1307,0,171,0,35.00,-6.24,-6.58
948584,1337,0,167,0,35.00,-6.22,-6.55
948606,1541,0,173,0,35.00,-6.23,-6.58
948628,1853,0,181,0,35.00,-6.23,-6.55
948650,2183,0,185,0,35.00,-6.25,-6.58
948672,2163,0,189,0,35.00,-6.26,-6.55
948694,2311,0,183,0,35.00,-6.24,-6.60
948716,2134,0,181,0,35.00,-6.24,-6.55
948759,1831,0,172,0,35.00,-6.24,-6.56
948781,1374,0,169,0,35.00,-6.27,-6.61
948803,1523,0,157,0,35.00,-6.23,-6.57
948825,1647,0,171,0,35.00,-6.28,-6.56
948847,2122,0,175,0,35.00,-6.22,-6.57
948869,2303,0,179,0,35.00,-6.26,-6.58
948891,2426,0,185,0,35.00,-6.25,-6.60
948913,2328,0,186,0,35.00,-6.26,-6.57
948935,2197,0,183,0,35.00,-6.24,-6.59
948957,1874,0,179,0,35.00,-6.21,-6.56
948999,1481,0,175,0,35.00,-6.23,-6.53
949021,1207,0,169,0,35.00,-6.26,-6.56
949043,1375,0,167,0,35.00,-6.24,-6.58
949065,1613,0,171,0,35.00,-6.27,-6.55
949087,2030,0,183,0,35.00,-6.22,-6.51
949109,2003,0,173,0,35.00,-6.23,-6.52
949131,2202,0,185,0,35.00,-6.25,-6.55
949153,2054,0,183,0,35.00,-6.24,-6.61
949175,2183,0,196,0,35.00,-6.25,-6.59
949197,1647,0,183,0,35.00,-6.25,-6.59
949240,1109,0,169,0,35.00,-6.24,-6.58
949262,1263,0,173,0,35.00,-6.24,-6.57
949284,1659,0,176,0,35.00,-6.21,-6.60
949306,1887,0,176,0,35.00,-6.25,-6.59
949328,2039,0,179,0,35.00,-6.24,-6.55
949350,1625,0,175,0,35.00,-6.23,-6.57
949372,2297,0,189,0,35.00,-6.24,-6.56
949394,3129,0,213,0,35.00,-6.27,-6.62
949416,3409,0,231,0,35.00,-6.27,-6.54
949438,2951,0,221,0,35.00,-6.22,-6.59
949480,1927,0,204,0,35.00,-6.22,-6.56
949502,852,0,187,0,35.00,-6.25,-6.54
949524,295,0,175,0,35.00,-6.27,-6.58
949546,599,0,175,0,35.00,-6.24,-6.59
949568,1403,0,173,0,35.00,-6.25,-6.61
949590,2569,0,180,0,35.00,-6.21,-6.56
949612,3176,0,181,0,35.00,-6.19,-6.57
949634,3759,0,201,0,35.00,-6.21,-6.54
949656,3061,0,203,0,35.00,-6.23,-6.63
949678,2282,0,210,0,35.00,-6.26,-6.57
949721,1495,0,184,0,35.00,-6.27,-6.53
949743,809,0,175,0,35.00,-6.24,-6.57
949765,574,0,153,0,35.00,-6.23,-6.57
949787,849,0,155,0,35.00,-6.20,-6.57
949809,1252,0,154,0,35.00,-6.23,-6.56
949831,1960,0,181,0,35.00,-6.21,-6.56
949853,935,0,199,0,35.00,-6.24,-6.56
949875,3003,0,237,0,35.00,-6.23,-6.58
949897,3209,0,229,0,35.00,-6.27,-6.58
949919,2999,0,206,0,35.00,-6.26,-6.57
949961,2169,0,165,0,35.00,-6.25,-6.57
949983,646,0,157,0,35.00,-6.21,-6.57
950386,270,0,165,0,33.98,-6.24,-6.56
950422,1189,0,163,0,35.00,-6.22,-6.56
950444,626,0,155,0,35.00,-6.23,-6.55
950466,551,0,151,0,35.00,-6.23,-6.57
950488,1242,0,158,0,35.00,-6.21,-6.58
950510,2277,0,185,0,35.00,-6.24,-6.55
950532,3291,0,211,0,35.00,-6.21,-6.56
950554,4095,0,219,0,35.00,-6.23,-6.56
950576,4095,0,216,0,35.00,-6.20,-6.59
950598,3629,0,189,0,35.00,-6.25,-6.35
950620,2920,0,197,0,35.00,-6.19,-6.41
950663,1455,0,163,0,35.00,-6.32,-6.65
950685,1103,0,141,0,35.00,-6.20,-6.56
950707,1287,0,149,0,35.00,-6.19,-6.57
950729,2111,0,176,0,35.00,-6.25,-6.54
950751,2367,0,189,0,35.00,-6.22,-6.58
950773,3291,0,205,0,35.00,-6.25,-6.54
950795,3563,0,207,0,35.00,-6.23,-6.61
950817,3035,0,187,0,35.00,-6.26,-6.57
950839,2067,0,165,0,35.00,-6.21,-6.56
950861,979,0,151,0,35.00,-6.22,-6.53
950903,407,0,149,0,35.00,-6.28,-6.57
950925,503,0,149,0,35.00,-6.24,-6.57
950947,775,0,157,0,35.00,-6.23,-6.52
950969,1407,0,167,0,35.00,-6.22,-6.58
950991,2111,0,189,0,35.00,-6.23,-6.53
951403,2887,0,209,0,33.98,-6.21,-6.59
951444,663,0,157,0,35.00,-6.25,-6.60
951466,743,0,171,0,35.00,-6.20,-6.59
951488,1267,0,163,0,35.00,-6.26,-6.57
951510,2157,0,187,0,35.00,-6.23,-6.56
951532,2985,0,213,0,35.00,-6.27,-6.55
951554,3665,0,220,0,35.00,-6.23,-6.55
951576,3352,0,204,0,35.00,-6.27,-6.59
951598,2527,0,187,0,35.00,-6.24,-6.58
951620,1526,0,154,0,35.00,-6.22,-6.55
951642,699,0,145,0,35.00,-6.18,-6.54
951664,474,0,141,0,35.00,-6.25,-6.56
951705,636,0,155,0,35.00,-6.21,-6.56
951727,1083,0,155,0,35.00,-6.25,-6.56
951749,1869,0,181,0,35.00,-6.23,-6.54
951771,2431,0,185,0,35.00,-6.28,-6.57
951793,3320,0,229,0,35.00,-6.22,-6.63
951815,3657,0,227,0,35.00,-6.17,-6.55
951837,2781,0,202,0,35.00,-6.24,-6.59
951859,1719,0,171,0,35.00,-6.22,-6.61
951881,803,0,148,0,35.00,-6.19,-6.56
951903,485,0,135,0,35.00,-6.22,-6.57
951946,588,0,157,0,35.00,-6.26,-6.57
951968,1606,0,168,0,35.00,-6.18,-6.58
951990,2431,0,199,0,35.00,-6.22,-6.59
952418,3301,0,207,0,34.04,-6.24,-6.58
952447,973,0,157,0,35.00,-6.23,-6.57
952469,2401,0,186,0,35.00,-6.23,-6.57
952491,3327,0,211,0,35.00,-6.26,-6.56
952513,3925,0,227,0,35.00,-6.25,-6.57
952535,3607,0,228,0,35.00,-6.24,-6.56
952557,2731,0,197,0,35.00,-6.24,-6.59
952579,1397,0,150,0,35.00,-6.25,-6.55
952601,518,0,149,0,35.00,-6.18,-6.55
952623,115,0,143,0,35.00,-6.25,-6.62
952645,453,0,159,0,35.00,-6.23,-6.56
952687,1150,0,165,0,35.00,-6.22,-6.56
952709,2360,0,189,0,35.00,-6.22,-6.56
952731,3427,0,212,0,35.00,-6.22,-6.53
952753,4027,0,221,0,35.00,-6.22,-6.59
952775,3533,0,216,0,35.00,-6.21,-6.56
952797,2571,0,199,0,35.00,-6.25,-6.59
952819,1227,0,154,0,35.00,-6.22,-6.55
952841,339,0,151,0,35.00,-6.22,-6.57
952863,405,0,143,0,35.00,-6.24,-6.60
952885,650,0,153,0,35.00,-6.23,-6.58
952928,1387,0,166,0,35.00,-6.20,-6.56
952950,2603,0,203,0,35.00,-6.24,-6.55
952972,3463,0,229,0,35.00,-6.25,-6.57
952994,3469,0,225,0,35.00,-6.25,-6.56
953435,2899,0,215,0,34.23,-6.22,-6.52
953469,2165,0,180,0,35.00,-6.25,-6.58
953491,3513,0,207,0,35.00,-6.27,-6.58
953513,3896,0,216,0,35.00,-6.26,-6.62
953535,3210,0,213,0,35.00,-6.23,-6.56
953557,2153,0,183,0,35.00,-6.19,-6.57
953579,925,0,159,0,35.00,-6.21,-6.60
953601,568,0,151,0,35.00,-6.27,-6.55
953623,478,0,155,0,35.00,-6.26,-6.62
953645,915,0,155,0,35.00,-6.23,-6.57
953667,1459,0,175,0,35.00,-6.26,-6.55
953709,2303,0,201,0,35.00,-6.22,-6.56
953731,2935,0,205,0,35.00,-6.22,-6.59
953753,2491,0,203,0,35.00,-6.24,-6.58
953775,2415,0,212,0,35.00,-6.20,-6.52
953797,920,0,185,0,35.00,-6.31,-6.58
953819,698,0,175,0,35.00,-6.26,-6.57
953841,251,0,159,0,35.00,-6.23,-6.56
953863,871,0,165,0,35.00,-6.23,-6.56
953885,1690,0,163,0,35.00,-6.25,-6.57
953907,2477,0,181,0,35.00,-6.21,-6.62
953929,2981,0,186,0,35.00,-6.22,-6.55
953970,3333,0,210,0,35.00,-6.24,-6.54
953992,3579,0,207,0,35.00,-6.19,-6.60
954705,2965,0,189,0,33.94,-6.24,-6.58
954732,1695,0,170,0,35.00,-6.20,-6.55
954754,1928,0,184,0,35.00,-6.16,-6.53
954776,1292,0,179,0,35.00,-6.21,-6.55
954798,509,0,155,0,35.00,-6.24,-6.58
954820,0,0,153,0,35.00,-6.21,-6.56
954842,0,0,157,0,35.00,-6.24,-6.59
954864,341,0,159,0,35.00,-6.20,-6.53
954886,1125,0,179,0,35.00,-6.22,-6.61
954908,1544,0,183,0,35.00,-6.23,-6.60
954930,1927,0,215,0,35.00,-6.26,-6.58
954972,2173,0,227,0,35.00,-6.24,-6.56
954994,2089,0,217,0,35.00,-6.20,-6.59
955722,1324,0,203,0,33.91,-6.28,-6.59
955754,1939,0,148,0,35.00,-6.26,-6.69
955776,2749,0,141,0,35.00,-6.24,-6.59
955798,1900,0,153,0,35.00,-6.22,-6.63
955820,837,0,125,0,35.00,-6.22,-6.62
955842,2283,0,153,0,35.00,-6.21,-6.59
955864,1960,0,173,0,35.00,-6.20,-6.56
955886,2201,0,182,0,35.00,-6.20,-6.56
955908,2411,0,182,0,35.00,-6.26,-6.59
955930,2803,0,197,0,35.00,-6.22,-6.59
955952,2777,0,183,0,35.00,-6.27,-6.59
955995,2464,0,187,0,35.00,-6.28,-6.58
956738,1471,0,163,0,33.86,-6.21,-6.59
956776,1062,0,165,0,35.00,-6.22,-6.58
956798,1176,0,167,0,35.00,-6.22,-6.60
956820,973,0,156,0,35.00,-6.23,-6.59
956842,1358,0,153,0,35.00,-6.22,-6.55
956864,1774,0,175,0,35.00,-6.22,-6.55
956886,2155,0,174,0,35.00,-6.15,-6.59
956908,2695,0,187,0,35.00,-6.24,-6.62
956930,2713,0,198,0,35.00,-6.15,-6.60
956952,2331,0,198,0,35.00,-6.23,-6.59
956974,2156,0,191,0,35.00,-6.21,-6.61
956996,1383,0,177,0,35.00,-6.16,-6.56
957037,971,0,159,0,35.00,-6.23,-6.56
957059,1069,0,163,0,35.00,-6.25,-6.58
957081,1206,0,164,0,35.00,-6.26,-6.57
957103,1559,0,172,0,35.00,-6.27,-6.59
957125,2055,0,179,0,35.00,-6.23,-6.59
957147,2660,0,195,0,35.00,-6.26,-6.62
957169,2952,0,206,0,35.00,-6.20,-6.57
957191,2855,0,209,0,35.00,-6.24,-6.61
957213,2259,0,191,0,35.00,-6.22,-6.58
957235,1554,0,173,0,35.00,-6.20,-6.60
957278,957,0,170,0,35.00,-6.22,-6.58
957300,949,0,163,0,35.00,-6.16,-6.57
957322,1085,0,164,0,35.00,-6.19,-6.56
957344,1819,0,173,0,35.00,-6.24,-6.56
957366,2411,0,185,0,35.00,-6.19,-6.63
957388,2822,0,199,0,35.00,-6.22,-6.58
957410,2985,0,201,0,35.00,-6.22,-6.58
957432,2617,0,203,0,35.00,-6.22,-6.60
957454,1853,0,184,0,35.00,-6.18,-6.54
957476,1143,0,171,0,35.00,-6.23,-6.59
957518,809,0,167,0,35.00,-6.22,-6.58
957540,947,0,157,0,35.00,-6.23,-6.57
957562,1255,0,165,0,35.00,-6.22,-6.56
957584,1967,0,176,0,35.00,-6.22,-6.55
957606,2365,0,181,0,35.00,-6.19,-6.59
957628,2893,0,198,0,35.00,-6.23,-6.57
957650,2759,0,187,0,35.00,-6.22,-6.59
957672,2663,0,201,0,35.00,-6.21,-6.60
957694,1836,0,183,0,35.00,-6.24,-6.62
957716,1244,0,160,0,35.00,-6.17,-6.56
957759,1005,0,159,0,35.00,-6.20,-6.59
957781,1103,0,156,0,35.00,-6.16,-6.62
957803,1613,0,163,0,35.00,-6.19,-6.56
957825,2238,0,179,0,35.00,-6.19,-6.59
957847,2857,0,191,0,35.00,-6.25,-6.61
957869,3195,0,188,0,35.00,-6.25,-6.56
957891,3145,0,195,0,35.00,-6.27,-6.60
957913,2577,0,169,0,35.00,-6.18,-6.60
957935,1883,0,149,0,35.00,-6.22,-6.58
957957,1309,0,140,0,35.00,-6.19,-6.60
957999,0,0,155,0,35.00,-6.21,-6.57
958021,1275,0,181,0,35.00,-6.22,-6.58
958043,1788,0,183,0,35.00,-6.18,-6.60
958065,2123,0,187,0,35.00,-6.20,-6.56
958087,2504,0,205,0,35.00,-6.25,-6.60
958109,2601,0,215,0,35.00,-6.18,-6.55
958131,2355,0,214,0,35.00,-6.21,-6.57
958153,1772,0,201,0,35.00,-6.12,-6.56
958175,1431,0,191,0,35.00,-6.21,-6.56
958197,1222,0,174,0,35.00,-6.22,-6.63
958240,795,0,162,0,35.00,-6.18,-6.57
958262,1657,0,153,0,35.00,-6.28,-6.57
958284,2357,0,173,0,35.00,-6.21,-6.57
958306,2720,0,183,0,35.00,-6.22,-6.62
958328,3205,0,200,0,35.00,-6.21,-6.57
958350,2844,0,189,0,35.00,-6.17,-6.59
958372,2377,0,187,0,35.00,-6.19,-6.57
958394,1543,0,181,0,35.00,-6.22,-6.62
958416,987,0,163,0,35.00,-6.22,-6.59
958438,870,0,155,0,35.00,-6.21,-6.61
958480,1095,0,155,0,35.00,-6.21,-6.60
958502,1741,0,167,0,35.00,-6.22,-6.61
958524,2157,0,171,0,35.00,-6.25,-6.59
958546,2683,0,185,0,35.00,-6.24,-6.60
958568,2975,0,201,0,35.00,-6.22,-6.61
958590,2905,0,191,0,35.00,-6.27,-6.56
958612,2228,0,176,0,35.00,-6.19,-6.53
958634,1527,0,169,0,35.00,-6.23,-6.57
958656,1072,0,163,0,35.00,-6.22,-6.57
958678,1047,0,154,0,35.00,-6.19,-6.61
958700,1097,0,159,0,35.00,-6.19,-6.60
958741,1561,0,165,0,35.00,-6.20,-6.54
958763,1821,0,174,0,35.00,-6.19,-6.55
958785,2309,0,185,0,35.00,-6.20,-6.60
958807,2777,0,200,0,35.00,-6.20,-6.59
958829,2791,0,191,0,35.00,-6.20,-6.57
958851,2501,0,190,0,35.00,-6.24,-6.59
958873,1770,0,171,0,35.00,-6.21,-6.56
958895,1143,0,159,0,35.00,-6.20,-6.61
958917,933,0,159,0,35.00,-6.22,-6.62
958939,842,0,157,0,35.00,-6.27,-6.61
958981,1223,0,173,0,35.00,-6.22,-6.59
959532,1801,0,175,0,34.25,-6.24,-6.58
959563,1305,0,174,0,35.00,-6.22,-6.58
959585,2596,0,188,0,35.00,-6.21,-6.58
959607,2925,0,205,0,35.00,-6.21,-6.60
959629,2919,0,205,0,35.00,-6.24,-6.62
959651,2347,0,202,0,35.00,-6.22,-6.61
959673,1644,0,189,0,35.00,-6.25,-6.59
959695,1120,0,172,0,35.00,-6.22,-6.57
959717,1014,0,158,0,35.00,-6.27,-6.62
959739,1173,0,158,0,35.00,-6.17,-6.57
959761,1583,0,167,0,35.00,-6.21,-6.56
959803,2066,0,178,0,35.00,-6.25,-6.57
959825,2701,0,202,0,35.00,-6.25,-6.62
959847,2787,0,188,0,35.00,-6.22,-6.60
959869,2718,0,201,0,35.00,-6.27,-6.57
959891,2276,0,197,0,35.00,-6.18,-6.56
959913,1609,0,179,0,35.00,-6.23,-6.58
959935,1033,0,169,0,35.00,-6.22,-6.58
959957,984,0,159,0,35.00,-6.24,-6.61
959979,939,0,165,0,35.00,-6.20,-6.58
960549,1549,0,179,0,33.89,-6.25,-6.56
960585,2175,0,191,0,35.00,-6.23,-6.56
960607,3053,0,191,0,35.00,-6.22,-6.58
960629,2703,0,199,0,35.00,-6.22,-6.60
960651,2121,0,183,0,35.00,-6.25,-6.57
960673,1467,0,175,0,35.00,-6.21,-6.53
960695,1032,0,159,0,35.00,-6.23,-6.60
960717,939,0,151,0,35.00,-6.25,-6.61
960739,1287,0,163,0,35.00,-6.17,-6.58
960761,1915,0,165,0,35.00,-6.26,-6.59
960783,2539,0,168,0,35.00,-6.24,-6.57
960826,3257,0,186,0,35.00,-6.27,-6.62
960848,3196,0,175,0,35.00,-6.20,-6.59
960870,2543,0,183,0,35.00,-6.20,-6.59
960892,1755,0,159,0,35.00,-6.22,-6.59
960914,1125,0,147,0,35.00,-6.18,-6.56
960936,752,0,147,0,35.00,-6.22,-6.59
960958,915,0,152,0,35.00,-6.23,-6.58
960980,1255,0,155,0,35.00,-6.25,-6.60
961564,1701,0,178,0,34.61,-6.19,-6.60
961595,2611,0,201,0,35.00,-6.21,-6.55
961617,361,0,168,0,35.00,-6.25,-6.56
961639,875,0,181,0,35.00,-6.19,-6.56
961661,1399,0,189,0,35.00,-6.22,-6.58
961683,1943,0,203,0,35.00,-6.22,-6.61
961705,2629,0,221,0,35.00,-6.26,-6.61
961748,3093,0,218,0,35.00,-6.22,-6.60
961770,2533,0,188,0,35.00,-6.18,-6.54
961792,1447,0,159,0,35.00,-6.21,-6.56
961814,869,0,159,0,35.00,-6.23,-6.58
961836,1045,0,157,0,35.00,-6.20,-6.55
961858,1519,0,154,0,35.00,-6.24,-6.57
961880,2539,0,159,0,35.00,-6.27,-6.57
961902,3445,0,158,0,35.00,-6.24,-6.60
961924,3704,0,163,0,35.00,-6.22,-6.57
961946,3367,0,174,0,35.00,-6.25,-6.60
961988,2773,0,173,0,35.00,-6.20,-6.56
962581,1630,0,172,0,34.05,-6.21,-6.59
962612,2943,0,180,0,35.00,-6.23,-6.61
962634,1005,0,155,0,35.00,-6.24,-6.65
962656,1211,0,165,0,35.00,-6.16,-6.60
962678,1557,0,153,0,35.00,-6.29,-6.62
962700,2026,0,159,0,35.00,-6.24,-6.59
962722,2350,0,173,0,35.00,-6.20,-6.55
962744,2697,0,202,0,35.00,-6.23,-6.58
962766,2587,0,198,0,35.00,-6.23,-6.57
962788,1948,0,203,0,35.00,-6.22,-6.57
962830,1302,0,199,0,35.00,-6.26,-6.57
962852,1016,0,184,0,35.00,-6.17,-6.59
962874,927,0,171,0,35.00,-6.21,-6.57
962896,1304,0,165,0,35.00,-6.22,-6.57
962918,1701,0,158,0,35.00,-6.25,-6.54
962940,2215,0,171,0,35.00,-6.23,-6.61
962962,2633,0,175,0,35.00,-6.22,-6.60
962984,3049,0,200,0,35.00,-6.20,-6.60
963346,3191,0,190,0,33.92,-6.24,-6.59
963374,1933,0,226,0,35.00,-6.20,-6.55
963396,1268,0,172,0,35.00,-6.22,-6.59
963418,2120,0,165,0,35.00,-6.19,-6.58
963440,2573,0,168,0,35.00,-6.21,-6.64
963462,2736,0,186,0,35.00,-6.19,-6.62
963484,2942,0,212,0,35.00,-6.21,-6.57
963506,2887,0,205,0,35.00,-6.24,-6.58
963528,3004,0,191,0,35.00,-6.22,-6.60
963550,2823,0,163,0,35.00,-6.17,-6.60
963592,2616,0,141,0,35.00,-6.19,-6.56
963614,1422,0,117,0,35.00,-6.16,-6.56
963636,1263,0,127,0,35.00,-6.25,-6.54
963658,1491,0,141,0,35.00,-6.23,-6.56
963680,1653,0,157,0,35.00,-6.22,-6.59
963702,1911,0,183,0,35.00,-6.19,-6.54
963724,1867,0,204,0,35.00,-6.22,-6.60
963746,1213,0,227,0,35.00,-6.20,-6.57
963768,329,0,237,0,35.00,-6.21,-6.57
963790,141,0,243,0,35.00,-6.21,-6.60
963832,0,0,232,0,35.00,-6.25,-6.58
963854,1863,0,153,0,35.00,-6.22,-6.58
963876,1513,0,151,0,35.00,-6.20,-6.60
963898,1526,0,167,0,35.00,-6.20,-6.55
963920,1776,0,187,0,35.00,-6.23,-6.61
963942,2711,0,201,0,35.00,-6.18,-6.59
963964,4095,0,199,0,35.00,-6.25,-6.58
963986,4095,0,169,0,35.00,-6.23,-6.57
964359,3853,0,165,0,34.04,-6.25,-6.58
964394,2471,0,199,0,35.00,-6.29,-6.56
964416,2291,0,149,0,35.00,-6.23,-6.60
964438,3847,0,147,0,35.00,-6.22,-6.58
964460,4095,0,123,0,35.00,-6.21,-6.61
964482,3994,0,155,0,35.00,-6.22,-6.54
964504,3262,0,165,0,35.00,-6.21,-6.54
964526,2443,0,181,0,35.00,-6.20,-6.60
964548,1567,0,175,0,35.00,-6.25,-6.60
964570,469,0,168,0,35.00,-6.22,-6.60
964592,0,0,187,0,35.00,-6.21,-6.58
964634,0,0,206,0,35.00,-6.25,-6.59
964656,0,0,245,0,35.00,-6.24,-6.61
964678,459,0,233,0,35.00,-6.21,-6.59
964700,2483,0,219,0,35.00,-6.21,-6.58
964722,3378,0,215,0,35.00,-6.23,-6.51
964744,3455,0,217,0,35.00,-6.22,-6.59
964766,2891,0,214,0,35.00,-6.25,-6.57
964788,2495,0,203,0,35.00,-6.25,-6.53
964810,1429,0,171,0,35.00,-6.25,-6.62
964832,1119,0,168,0,35.00,-6.20,-6.58
964854,1117,0,163,0,35.00,-6.23,-6.58
964895,1437,0,159,0,35.00,-6.23,-6.56
964917,1565,0,173,0,35.00,-6.25,-6.57
964939,2293,0,183,0,35.00,-6.24,-6.58
964961,2834,0,189,0,35.00,-6.23,-6.61
964983,3383,0,218,0,35.00,-6.20,-6.53
965375,3723,0,216,0,34.03,-6.23,-6.62
965416,1492,0,158,0,35.00,-6.18,-6.56
965438,1869,0,173,0,35.00,-6.22,-6.58
965460,2485,0,179,0,35.00,-6.23,-6.56
965482,3275,0,187,0,35.00,-6.21,-6.57
965504,3299,0,205,0,35.00,-6.23,-6.58
965526,2581,0,205,0,35.00,-6.22,-6.56
965548,1704,0,187,0,35.00,-6.25,-6.57
965570,935,0,159,0,35.00,-6.26,-6.60
965592,567,0,149,0,35.00,-6.22,-6.59
965614,649,0,153,0,35.00,-6.21,-6.52
965657,1145,0,163,0,35.00,-6.25,-6.58
965679,2396,0,181,0,35.00,-6.18,-6.62
965701,2935,0,199,0,35.00,-6.25,-6.53
965723,2975,0,207,0,35.00,-6.24,-6.58
965745,2709,0,211,0,35.00,-6.23,-6.63
965767,2089,0,199,0,35.00,-6.20,-6.58
965789,1331,0,178,0,35.00,-6.18,-6.55
965811,777,0,159,0,35.00,-6.22,-6.56
965833,589,0,155,0,35.00,-6.26,-6.56
965855,919,0,169,0,35.00,-6.20,-6.59
965897,1608,0,186,0,35.00,-6.21,-6.59
965919,2347,0,186,0,35.00,-6.18,-6.56
965941,2825,0,211,0,35.00,-6.26,-6.60
965963,2830,0,207,0,35.00,-6.27,-6.58
965985,2647,0,218,0,35.00,-6.21,-6.59
966391,1752,0,199,0,34.26,-6.20,-6.55
966419,1207,0,164,0,35.00,-6.20,-6.52
966441,4095,0,184,0,35.00,-6.24,-6.55
966463,3901,0,197,0,35.00,-6.22,-6.57
966485,3111,0,212,0,35.00,-6.23,-6.57
966507,2013,0,183,0,35.00,-6.20,-6.60
966529,1139,0,164,0,35.00,-6.19,-6.62
966551,1039,0,155,0,35.00,-6.23,-6.64
966573,1095,0,157,0,35.00,-6.24,-6.61
966595,1724,0,150,0,35.00,-6.20,-6.63
966617,3179,0,147,0,35.00,-6.26,-6.62
966659,3117,0,139,0,35.00,-6.16,-6.56
966681,2971,0,191,0,35.00,-6.20,-6.54
966703,3124,0,191,0,35.00,-6.21,-6.62
966725,2813,0,173,0,35.00,-6.14,-6.56
966747,1147,0,155,0,35.00,-6.13,-6.56
966769,0,0,168,0,35.00,-6.23,-6.57
966791,0,0,215,0,35.00,-6.23,-6.59
966813,0,0,233,0,35.00,-6.23,-6.57
966835,0,0,229,0,35.00,-6.21,-6.57
966857,687,0,237,0,35.00,-6.23,-6.64
966899,1497,0,263,0,35.00,-6.19,-6.59
966921,2505,0,263,0,35.00,-6.17,-6.61
966943,2431,0,246,0,35.00,-6.24,-6.54
966965,1781,0,243,0,35.00,-6.24,-6.64
966987,909,0,231,0,35.00,-6.25,-6.64
967408,617,0,215,0,33.87,-6.22,-6.59
967440,991,0,173,0,35.00,-6.25,-6.61
967462,3557,0,215,0,35.00,-6.25,-6.55
967484,2761,0,214,0,35.00,-6.21,-6.63
967506,2072,0,201,0,35.00,-6.23,-6.62
967528,1235,0,189,0,35.00,-6.22,-6.56
967550,902,0,173,0,35.00,-6.20,-6.55
967572,1099,0,173,0,35.00,-6.23,-6.61
967594,1799,0,179,0,35.00,-6.22,-6.60
967616,2523,0,191,0,35.00,-6.21,-6.59
967638,3013,0,206,0,35.00,-6.23,-6.60
967660,3443,0,203,0,35.00,-6.23,-6.62
967701,3271,0,213,0,35.00,-6.21,-6.57
967723,3053,0,205,0,35.00,-6.20,-6.54
967745,2429,0,185,0,35.00,-6.20,-6.61
967767,1687,0,172,0,35.00,-6.22,-6.58
967789,1269,0,159,0,35.00,-6.22,-6.59
967811,1177,0,148,0,35.00,-6.25,-6.64
967833,1327,0,149,0,35.00,-6.18,-6.57
967855,2059,0,167,0,35.00,-6.23,-6.56
967877,2415,0,168,0,35.00,-6.22,-6.58
967899,2887,0,185,0,35.00,-6.18,-6.55
967942,2827,0,186,0,35.00,-6.22,-6.58
967964,2309,0,173,0,35.00,-6.23,-6.58
967986,1509,0,165,0,35.00,-6.23,-6.60
968424,828,0,169,0,33.76,-6.21,-6.58
968463,1297,0,161,0,35.00,-6.24,-6.63
968485,1577,0,179,0,35.00,-6.24,-6.62
968507,1070,0,167,0,35.00,-6.25,-6.56
968529,775,0,147,0,35.00,-6.25,-6.61
968551,1039,0,151,0,35.00,-6.22,-6.63
968573,1339,0,163,0,35.00,-6.24,-6.59
968595,1787,0,173,0,35.00,-6.30,-6.59
968617,2318,0,185,0,35.00,-6.23,-6.61
968639,2591,0,190,0,35.00,-6.19,-6.56
968661,2335,0,185,0,35.00,-6.23,-6.59
968703,2120,0,191,0,35.00,-6.21,-6.60
968725,1662,0,169,0,35.00,-6.24,-6.57
968747,1050,0,158,0,35.00,-6.24,-6.54
968769,745,0,151,0,35.00,-6.24,-6.59
968791,1076,0,146,0,35.00,-6.19,-6.53
968813,1305,0,165,0,35.00,-6.21,-6.62
968835,1940,0,172,0,35.00,-6.23,-6.61
968857,2405,0,180,0,35.00,-6.20,-6.55
968879,2728,0,197,0,35.00,-6.26,-6.57
968901,2729,0,202,0,35.00,-6.21,-6.54
968944,2489,0,200,0,35.00,-6.22,-6.58
968966,1275,0,159,0,35.00,-6.22,-6.58
968988,846,0,155,0,35.00,-6.19,-6.60
969694,915,0,155,0,33.76,-6.22,-6.56
969725,2493,0,182,0,35.00,-6.26,-6.64
969747,966,0,151,0,35.00,-6.20,-6.57
969769,939,0,151,0,35.00,-6.21,-6.65
969791,1189,0,155,0,35.00,-6.22,-6.58
969813,1661,0,164,0,35.00,-6.22,-6.65
969835,2205,0,181,0,35.00,-6.26,-6.55
969857,2668,0,199,0,35.00,-6.20,-6.59
969879,2827,0,201,0,35.00,-6.21,-6.60
969901,2569,0,198,0,35.00,-6.24,-6.58
969923,2007,0,185,0,35.00,-6.27,-6.59
969945,1429,0,171,0,35.00,-6.23,-6.58
969986,1043,0,163,0,35.00,-6.24,-6.60
970710,933,0,157,0,33.87,-6.24,-6.59
970748,1852,0,164,0,35.00,-6.21,-6.58
970770,1226,0,159,0,35.00,-6.21,-6.60
970792,1359,0,155,0,35.00,-6.22,-6.61
970814,2270,0,181,0,35.00,-6.24,-6.64
970836,2709,0,195,0,35.00,-6.24,-6.56
970858,2895,0,201,0,35.00,-6.22,-6.58
970880,2595,0,188,0,35.00,-6.22,-6.59
970902,2023,0,187,0,35.00,-6.21,-6.61
970924,1439,0,175,0,35.00,-6.21,-6.53
970946,995,0,158,0,35.00,-6.18,-6.59
970988,969,0,156,0,35.00,-6.20,-6.63
971727,1309,0,165,0,33.99,-6.23,-6.62
971770,1179,0,165,0,35.00,-6.19,-6.56
971792,1817,0,163,0,35.00,-6.21,-6.56
971814,2325,0,165,0,35.00,-6.24,-6.59
971836,2790,0,200,0,35.00,-6.24,-6.60
971858,2860,0,188,0,35.00,-6.23,-6.58
971880,2531,0,201,0,35.00,-6.21,-6.61
971902,1695,0,183,0,35.00,-6.20,-6.58
971924,1189,0,171,0,35.00,-6.25,-6.58
971946,938,0,158,0,35.00,-6.21,-6.56
971968,1047,0,157,0,35.00,-6.20,-6.58
972743,1382,0,155,0,33.78,-6.23,-6.61
972772,777,0,159,0,35.00,-6.22,-6.56
972794,2665,0,191,0,35.00,-6.23,-6.62
972816,2886,0,203,0,35.00,-6.17,-6.60
972838,2555,0,200,0,35.00,-6.21,-6.61
972860,2041,0,203,0,35.00,-6.22,-6.58
972882,1447,0,179,0,35.00,-6.22,-6.57
972904,965,0,163,0,35.00,-6.21,-6.60
972926,876,0,154,0,35.00,-6.20,-6.58
972948,1261,0,167,0,35.00,-6.15,-6.55
972970,1861,0,171,0,35.00,-6.22,-6.58
973512,2265,0,175,0,33.81,-6.21,-6.56
973554,2716,0,191,0,35.00,-6.22,-6.59
973576,2859,0,199,0,35.00,-6.22,-6.56
973598,2577,0,191,0,35.00,-6.27,-6.59
973620,2035,0,175,0,35.00,-6.24,-6.64
973642,1433,0,165,0,35.00,-6.26,-6.59
973664,1013,0,157,0,35.00,-6.21,-6.59
973686,1108,0,154,0,35.00,-6.20,-6.58
973708,1439,0,157,0,35.00,-6.22,-6.56
973730,1967,0,181,0,35.00,-6.22,-6.59
973752,2489,0,181,0,35.00,-6.23,-6.58
973794,2875,0,201,0,35.00,-6.24,-6.58
973816,2809,0,206,0,35.00,-6.22,-6.59
973838,2271,0,203,0,35.00,-6.21,-6.58
973860,1645,0,188,0,35.00,-6.21,-6.59
973882,1076,0,173,0,35.00,-6.17,-6.59
973904,870,0,159,0,35.00,-6.25,-6.57
973926,1076,0,165,0,35.00,-6.18,-6.59
973948,1530,0,167,0,35.00,-6.23,-6.54
973970,2057,0,174,0,35.00,-6.23,-6.58
973992,2518,0,182,0,35.00,-6.20,-6.58
974035,2805,0,189,0,35.00,-6.27,-6.61
974057,2535,0,203,0,35.00,-6.20,-6.57
974079,1933,0,198,0,35.00,-6.22,-6.59
974101,1304,0,181,0,35.00,-6.25,-6.58
974123,895,0,167,0,35.00,-6.21,-6.60
974145,920,0,165,0,35.00,-6.21,-6.60
974167,1330,0,163,0,35.00,-6.18,-6.61
974189,1805,0,175,0,35.00,-6.23,-6.59
974211,2317,0,175,0,35.00,-6.26,-6.59
974233,2660,0,201,0,35.00,-6.18,-6.57
974275,2771,0,199,0,35.00,-6.23,-6.58
974297,2495,0,187,0,35.00,-6.22,-6.57
974319,1811,0,178,0,35.00,-6.19,-6.59
974341,1275,0,167,0,35.00,-6.23,-6.56
974363,941,0,163,0,35.00,-6.24,-6.60
974385,994,0,152,0,35.00,-6.23,-6.55
974407,1374,0,157,0,35.00,-6.22,-6.54
974429,1833,0,171,0,35.00,-6.16,-6.58
974451,2380,0,187,0,35.00,-6.19,-6.60
974473,2757,0,197,0,35.00,-6.20,-6.59
974516,2811,0,213,0,35.00,-6.20,-6.61
974538,2119,0,197,0,35.00,-6.21,-6.55
974560,1384,0,173,0,35.00,-6.24,-6.59
974582,925,0,168,0,35.00,-6.21,-6.66
974604,821,0,163,0,35.00,-6.25,-6.58
974626,1161,0,165,0,35.00,-6.19,-6.58
974648,1611,0,164,0,35.00,-6.26,-6.55
974670,2325,0,189,0,35.00,-6.23,-6.57
974692,2668,0,187,0,35.00,-6.24,-6.61
974714,2991,0,212,0,35.00,-6.19,-6.57
974756,2725,0,189,0,35.00,-6.22,-6.54
974778,2137,0,187,0,35.00,-6.20,-6.58
974800,1517,0,179,0,35.00,-6.22,-6.62
974822,1067,0,157,0,35.00,-6.21,-6.59
974844,883,0,165,0,35.00,-6.25,-6.58
974866,1221,0,170,0,35.00,-6.19,-6.61
974888,1688,0,171,0,35.00,-6.20,-6.55
974910,2427,0,189,0,35.00,-6.24,-6.57
974932,2789,0,199,0,35.00,-6.20,-6.65
974954,2967,0,201,0,35.00,-6.20,-6.60
974976,2423,0,186,0,35.00,-6.24,-6.60
975537,1964,0,179,0,33.93,-6.24,-6.61
975578,1405,0,188,0,35.00,-6.20,-6.58
975600,1161,0,169,0,35.00,-6.21,-6.57
975622,941,0,164,0,35.00,-6.22,-6.57
975644,1032,0,152,0,35.00,-6.20,-6.58
975666,1433,0,169,0,35.00,-6.21,-6.59
975688,2035,0,182,0,35.00,-6.19,-6.59
975710,2393,0,188,0,35.00,-6.22,-6.57
975732,2792,0,189,0,35.00,-6.20,-6.61
975754,2707,0,198,0,35.00,-6.19,-6.60
975776,2323,0,197,0,35.00,-6.22,-6.57
975819,1643,0,182,0,35.00,-6.22,-6.57
975841,1053,0,157,0,35.00,-6.16,-6.61
975863,989,0,156,0,35.00,-6.23,-6.56
975885,1309,0,162,0,35.00,-6.22,-6.58
975907,1907,0,183,0,35.00,-6.21,-6.60
975929,2425,0,187,0,35.00,-6.22,-6.61
975951,2857,0,201,0,35.00,-6.24,-6.59
975973,2806,0,201,0,35.00,-6.25,-6.57
975995,2495,0,203,0,35.00,-6.24,-6.58
976553,1903,0,187,0,34.09,-6.26,-6.57
976583,2365,0,197,0,35.00,-6.23,-6.59
976605,1431,0,160,0,35.00,-6.21,-6.54
976627,2071,0,189,0,35.00,-6.21,-6.55
976649,2467,0,189,0,35.00,-6.22,-6.58
976671,2812,0,201,0,35.00,-6.20,-6.58
976693,2834,0,200,0,35.00,-6.22,-6.57
976715,2415,0,197,0,35.00,-6.22,-6.56
976737,1705,0,179,0,35.00,-6.23,-6.61
976759,1109,0,175,0,35.00,-6.26,-6.56
976801,879,0,167,0,35.00,-6.22,-6.57
976823,955,0,160,0,35.00,-6.22,-6.58
976845,1469,0,165,0,35.00,-6.24,-6.57
976867,2089,0,183,0,35.00,-6.25,-6.61
976889,2521,0,185,0,35.00,-6.22,-6.65
976911,2703,0,211,0,35.00,-6.24,-6.55
976933,2646,0,198,0,35.00,-6.21,-6.61
976955,2195,0,199,0,35.00,-6.22,-6.58
976977,1659,0,181,0,35.00,-6.26,-6.60
976999,1081,0,171,0,35.00,-6.19,-6.54
977041,1053,0,165,0,35.00,-6.26,-6.59
977063,1170,0,163,0,35.00,-6.22,-6.56
977085,1671,0,167,0,35.00,-6.23,-6.55
977107,2291,0,187,0,35.00,-6.23,-6.58
977129,2741,0,186,0,35.00,-6.22,-6.63
977151,2903,0,203,0,35.00,-6.23,-6.60
977173,2715,0,199,0,35.00,-6.19,-6.58
977195,2187,0,202,0,35.00,-6.24,-6.58
977217,1527,0,179,0,35.00,-6.22,-6.61
977239,1011,0,157,0,35.00,-6.25,-6.60
977261,924,0,149,0,35.00,-6.21,-6.63
977302,1215,0,157,0,35.00,-6.21,-6.58
977324,1385,0,159,0,35.00,-6.22,-6.57
977346,1906,0,185,0,35.00,-6.25,-6.58
977368,2389,0,183,0,35.00,-6.22,-6.62
977390,2792,0,198,0,35.00,-6.19,-6.58
977412,2805,0,199,0,35.00,-6.20,-6.58
977434,2363,0,189,0,35.00,-6.24,-6.60
977456,1717,0,179,0,35.00,-6.21,-6.64
977478,1208,0,169,0,35.00,-6.22,-6.59
977500,901,0,148,0,35.00,-6.25,-6.59
977542,1067,0,159,0,35.00,-6.27,-6.56
977564,1415,0,166,0,35.00,-6.22,-6.58
977586,1959,0,185,0,35.00,-6.22,-6.58
977608,2359,0,185,0,35.00,-6.27,-6.56
977630,3089,0,209,0,35.00,-6.24,-6.61
977652,2699,0,201,0,35.00,-6.24,-6.56
977674,2351,0,205,0,35.00,-6.23,-6.60
977696,1609,0,184,0,35.00,-6.24,-6.59
977718,1099,0,169,0,35.00,-6.23,-6.55
977740,845,0,157,0,35.00,-6.25,-6.58
977762,1049,0,164,0,35.00,-6.21,-6.60
977803,1444,0,169,0,35.00,-6.22,-6.55
977825,1824,0,167,0,35.00,-6.21,-6.59
977847,2423,0,187,0,35.00,-6.24,-6.57
977869,2765,0,189,0,35.00,-6.22,-6.58
977891,2845,0,215,0,35.00,-6.27,-6.58
977913,2411,0,203,0,35.00,-6.21,-6.59
977935,2007,0,189,0,35.00,-6.21,-6.54
977957,1277,0,173,0,35.00,-6.18,-6.58
977979,999,0,167,0,35.00,-6.22,-6.59
978341,947,0,167,0,34.12,-6.18,-6.57
978369,1487,0,171,0,35.00,-6.21,-6.59
978391,2739,0,200,0,35.00,-6.24,-6.61
978413,2361,0,187,0,35.00,-6.25,-6.59
978435,1704,0,178,0,35.00,-6.23,-6.56
978457,1173,0,174,0,35.00,-6.24,-6.60
978479,851,0,165,0,35.00,-6.18,-6.58
978501,1041,0,171,0,35.00,-6.20,-6.58
978523,1468,0,165,0,35.00,-6.20,-6.53
978565,2103,0,175,0,35.00,-6.24,-6.60
978587,2597,0,183,0,35.00,-6.21,-6.56
978609,2793,0,201,0,35.00,-6.20,-6.61
978631,2631,0,198,0,35.00,-6.24,-6.56
978653,2220,0,197,0,35.00,-6.21,-6.57
978675,1609,0,183,0,35.00,-6.26,-6.58
978697,1147,0,163,0,35.00,-6.23,-6.62
978719,988,0,165,0,35.00,-6.20,-6.56
978741,1255,0,165,0,35.00,-6.23,-6.58
978763,1644,0,169,0,35.00,-6.20,-6.54
978805,2109,0,180,0,35.00,-6.26,-6.62
978827,2607,0,188,0,35.00,-6.20,-6.62
978849,2861,0,199,0,35.00,-6.24,-6.58
978871,2759,0,200,0,35.00,-6.24,-6.57
978893,2271,0,184,0,35.00,-6.21,-6.57
978915,1484,0,170,0,35.00,-6.26,-6.60
978937,988,0,164,0,35.00,-6.24,-6.65
978959,921,0,157,0,35.00,-6.26,-6.60
978981,1131,0,165,0,35.00,-6.20,-6.58
979347,1567,0,170,0,34.20,-6.18,-6.60
979386,2867,0,213,0,35.00,-6.20,-6.60
979408,2741,0,198,0,35.00,-6.16,-6.58
979430,2774,0,201,0,35.00,-6.21,-6.57
979452,2283,0,197,0,35.00,-6.19,-6.60
979474,1719,0,186,0,35.00,-6.24,-6.59
979496,1161,0,170,0,35.00,-6.21,-6.58
979518,955,0,159,0,35.00,-6.25,-6.57
979540,1097,0,165,0,35.00,-6.20,-6.57
979562,1553,0,164,0,35.00,-6.23,-6.56
979584,2169,0,185,0,35.00,-6.24,-6.57
979606,2791,0,189,0,35.00,-6.22,-6.57
979647,2701,0,201,0,35.00,-6.23,-6.56
979669,2789,0,200,0,35.00,-6.23,-6.60
979691,2485,0,197,0,35.00,-6.26,-6.62
979713,1913,0,183,0,35.00,-6.21,-6.60
979735,1221,0,168,0,35.00,-6.20,-6.62
979757,923,0,159,0,35.00,-6.25,-6.62
979779,953,0,165,0,35.00,-6.23,-6.60
979801,1363,0,159,0,35.00,-6.21,-6.60
979823,1890,0,178,0,35.00,-6.17,-6.56
979845,2430,0,187,0,35.00,-6.21,-6.58
979888,2732,0,205,0,35.00,-6.20,-6.57
979910,2627,0,197,0,35.00,-6.24,-6.58
979932,2194,0,199,0,35.00,-6.24,-6.61
979954,1510,0,172,0,35.00,-6.22,-6.62
979976,1031,0,165,0,35.00,-6.21,-6.57
979998,915,0,165,0,35.00,-6.23,-6.60
980020,1259,0,165,0,35.00,-6.20,-6.59
980042,1723,0,171,0,35.00,-6.21,-6.57
980064,2269,0,183,0,35.00,-6.21,-6.62
980086,2301,0,183,0,35.00,-6.25,-6.59
980128,2991,0,211,0,35.00,-6.20,-6.56
980150,2615,0,200,0,35.00,-6.21,-6.57
980172,1918,0,186,0,35.00,-6.23,-6.58
980194,1427,0,179,0,35.00,-6.20,-6.58
980216,1032,0,157,0,35.00,-6.21,-6.59
980238,1053,0,157,0,35.00,-6.24,-6.61
980260,1259,0,169,0,35.00,-6.22,-6.58
980282,1803,0,174,0,35.00,-6.21,-6.60
980304,2395,0,177,0,35.00,-6.25,-6.58
980326,2805,0,192,0,35.00,-6.25,-6.55
980369,2847,0,203,0,35.00,-6.17,-6.59
980391,2303,0,213,0,35.00,-6.21,-6.56
980413,1461,0,185,0,35.00,-6.22,-6.59
980435,1251,0,172,0,35.00,-6.28,-6.59
980457,975,0,154,0,35.00,-6.21,-6.58
980479,1323,0,155,0,35.00,-6.21,-6.62
980501,1605,0,157,0,35.00,-6.17,-6.58
980523,1970,0,172,0,35.00,-6.23,-6.56
980545,2285,0,198,0,35.00,-6.25,-6.57
980567,2543,0,213,0,35.00,-6.22,-6.59
980609,2539,0,213,0,35.00,-6.18,-6.58
980631,2207,0,189,0,35.00,-6.21,-6.56
980653,1506,0,175,0,35.00,-6.22,-6.57
980675,1122,0,164,0,35.00,-6.20,-6.59
980697,1117,0,165,0,35.00,-6.23,-6.60
980719,1301,0,165,0,35.00,-6.21,-6.60
980741,1651,0,169,0,35.00,-6.21,-6.53
980763,2201,0,175,0,35.00,-6.21,-6.58
980785,2515,0,190,0,35.00,-6.22,-6.57
980807,2797,0,203,0,35.00,-6.24,-6.60
980850,2610,0,205,0,35.00,-6.21,-6.57
980872,1739,0,175,0,35.00,-6.22,-6.57
980894,1191,0,171,0,35.00,-6.19,-6.57
980916,823,0,167,0,35.00,-6.19,-6.60
980938,1006,0,174,0,35.00,-6.24,-6.56
980960,1389,0,172,0,35.00,-6.24,-6.60
980982,1973,0,189,0,35.00,-6.23,-6.61
981380,2472,0,201,0,33.82,-6.23,-6.59
981411,2197,0,187,0,35.00,-6.22,-6.55
981433,1343,0,168,0,35.00,-6.22,-6.54
981455,978,0,167,0,35.00,-6.22,-6.58
981477,819,0,165,0,35.00,-6.23,-6.57
981499,1413,0,179,0,35.00,-6.22,-6.57
981521,1861,0,182,0,35.00,-6.23,-6.57
981543,2398,0,189,0,35.00,-6.18,-6.59
981565,2705,0,204,0,35.00,-6.22,-6.56
981587,2936,0,213,0,35.00,-6.23,-6.56
981609,2438,0,191,0,35.00,-6.28,-6.60
981651,1903,0,184,0,35.00,-6.22,-6.60
981673,1285,0,179,0,35.00,-6.23,-6.51
981695,995,0,171,0,35.00,-6.16,-6.59
981717,1072,0,170,0,35.00,-6.20,-6.58
981739,1464,0,167,0,35.00,-6.22,-6.55
981761,1995,0,181,0,35.00,-6.26,-6.56
981783,2648,0,191,0,35.00,-6.23,-6.55
981805,3169,0,203,0,35.00,-6.22,-6.59
981827,2601,0,191,0,35.00,-6.22,-6.52
981849,2216,0,189,0,35.00,-6.22,-6.61
981871,1608,0,173,0,35.00,-6.21,-6.56
981912,1123,0,165,0,35.00,-6.26,-6.61
981934,1055,0,163,0,35.00,-6.26,-6.57
981956,869,0,167,0,35.00,-6.26,-6.58
981978,1205,0,173,0,35.00,-6.16,-6.60
982396,1754,0,169,0,34.14,-6.22,-6.62
982433,1405,0,167,0,35.00,-6.20,-6.59
982455,950,0,159,0,35.00,-6.20,-6.57
982477,1144,0,165,0,35.00,-6.21,-6.54
982499,1752,0,179,0,35.00,-6.21,-6.59
982521,2284,0,179,0,35.00,-6.21,-6.60
982543,2633,0,189,0,35.00,-6.24,-6.58
982565,2728,0,199,0,35.00,-6.22,-6.61
982587,2667,0,213,0,35.00,-6.26,-6.58
982609,2172,0,197,0,35.00,-6.26,-6.59
982631,1495,0,181,0,35.00,-6.26,-6.60
982653,1085,0,178,0,35.00,-6.19,-6.58
982694,1011,0,164,0,35.00,-6.20,-6.58
982716,1195,0,165,0,35.00,-6.23,-6.59
982738,1461,0,158,0,35.00,-6.23,-6.61
982760,1967,0,179,0,35.00,-6.23,-6.59
982782,2421,0,197,0,35.00,-6.24,-6.57
982804,2581,0,199,0,35.00,-6.20,-6.56
982826,2513,0,207,0,35.00,-6.20,-6.58
982848,2407,0,203,0,35.00,-6.22,-6.60
982870,1719,0,175,0,35.00,-6.23,-6.61
982892,1011,0,165,0,35.00,-6.22,-6.56
982934,921,0,157,0,35.00,-6.22,-6.56
982956,1150,0,179,0,35.00,-6.21,-6.54
982978,1563,0,167,0,35.00,-6.24,-6.61
983412,2026,0,181,0,34.19,-6.25,-6.58
983441,1021,0,168,0,35.00,-6.25,-6.62
983463,2791,0,199,0,35.00,-6.21,-6.55
983485,2503,0,201,0,35.00,-6.22,-6.55
983507,2327,0,213,0,35.00,-6.22,-6.56
983529,1721,0,187,0,35.00,-6.20,-6.54
983551,1197,0,169,0,35.00,-6.25,-6.56
983573,1019,0,162,0,35.00,-6.22,-6.60
983595,1148,0,163,0,35.00,-6.27,-6.58
983636,1551,0,167,0,35.00,-6.24,-6.57
983658,1855,0,168,0,35.00,-6.23,-6.60
983680,2269,0,188,0,35.00,-6.24,-6.58
983702,2661,0,191,0,35.00,-6.22,-6.60
983724,2808,0,211,0,35.00,-6.24,-6.54
983746,2425,0,191,0,35.00,-6.20,-6.60
983768,2010,0,200,0,35.00,-6.26,-6.60
983790,1371,0,181,0,35.00,-6.23,-6.57
983812,1005,0,165,0,35.00,-6.25,-6.57
983834,943,0,159,0,35.00,-6.19,-6.58
983877,1241,0,169,0,35.00,-6.21,-6.61
983899,2028,0,183,0,35.00,-6.20,-6.57
983921,2509,0,187,0,35.00,-6.22,-6.56
983943,2759,0,211,0,35.00,-6.23,-6.58
983965,2757,0,212,0,35.00,-6.24,-6.58
983987,2313,0,202,0,35.00,-6.22,-6.59
984428,1821,0,186,0,34.36,-6.21,-6.56
984458,1177,0,175,0,35.00,-6.24,-6.56
984480,2407,0,185,0,35.00,-6.21,-6.60
984502,2783,0,205,0,35.00,-6.22,-6.60
984524,2711,0,201,0,35.00,-6.26,-6.61
984546,2393,0,189,0,35.00,-6.21,-6.58
984568,1757,0,178,0,35.00,-6.22,-6.57
984590,1175,0,170,0,35.00,-6.21,-6.57
984612,933,0,154,0,35.00,-6.21,-6.55
984634,1035,0,167,0,35.00,-6.25,-6.58
984656,1395,0,169,0,35.00,-6.24,-6.57
984698,2031,0,175,0,35.00,-6.24,-6.58
984720,2543,0,191,0,35.00,-6.22,-6.60
984742,2735,0,191,0,35.00,-6.21,-6.56
984764,2823,0,216,0,35.00,-6.19,-6.57
984786,2291,0,201,0,35.00,-6.26,-6.54
984808,1548,0,179,0,35.00,-6.20,-6.58
984830,1111,0,169,0,35.00,-6.24,-6.55
984852,981,0,155,0,35.00,-6.24,-6.60
984874,1083,0,157,0,35.00,-6.18,-6.61
984896,1501,0,164,0,35.00,-6.22,-6.61
984918,2223,0,183,0,35.00,-6.21,-6.59
984959,2485,0,189,0,35.00,-6.22,-6.58
984981,2735,0,189,0,35.00,-6.21,-6.58
985699,2863,0,201,0,33.84,-6.21,-6.59
985741,2772,0,207,0,35.00,-6.24,-6.59
985763,2707,0,203,0,35.00,-6.23,-6.58
985785,2263,0,204,0,35.00,-6.23,-6.58
985807,1675,0,185,0,35.00,-6.25,-6.59
985829,1095,0,171,0,35.00,-6.22,-6.58
985851,885,0,165,0,35.00,-6.23,-6.64
985873,1093,0,171,0,35.00,-6.22,-6.57
985895,1510,0,181,0,35.00,-6.25,-6.60
985917,2003,0,180,0,35.00,-6.26,-6.55
985939,2534,0,189,0,35.00,-6.23,-6.63
985981,2825,0,205,0,35.00,-6.20,-6.58
986715,2681,0,205,0,33.63,-6.15,-6.58
986743,2269,0,174,0,35.00,-6.24,-6.58
986765,1961,0,190,0,35.00,-6.22,-6.57
986787,1448,0,180,0,35.00,-6.19,-6.63
986809,1063,0,171,0,35.00,-6.24,-6.58
986831,967,0,153,0,35.00,-6.24,-6.59
986853,1327,0,167,0,35.00,-6.25,-6.61
986875,1917,0,184,0,35.00,-6.23,-6.56
986897,2341,0,185,0,35.00,-6.27,-6.59
986919,2614,0,189,0,35.00,-6.22,-6.58
986941,2840,0,205,0,35.00,-6.16,-6.61
986983,2597,0,207,0,35.00,-6.21,-6.58
987731,1944,0,187,0,33.76,-6.21,-6.56
987765,1450,0,169,0,35.00,-6.20,-6.60
987787,1207,0,167,0,35.00,-6.21,-6.56
987809,953,0,159,0,35.00,-6.21,-6.58
987831,1069,0,153,0,35.00,-6.22,-6.60
987853,1403,0,163,0,35.00,-6.26,-6.57
987875,2021,0,180,0,35.00,-6.24,-6.58
987897,2516,0,199,0,35.00,-6.17,-6.58
987919,2863,0,213,0,35.00,-6.24,-6.59
987941,2679,0,211,0,35.00,-6.28,-6.61
987963,2263,0,191,0,35.00,-6.22,-6.60
988747,1575,0,198,0,33.90,-6.25,-6.62
988787,731,0,158,0,35.00,-6.26,-6.62
988809,1007,0,166,0,35.00,-6.17,-6.59
988831,1303,0,165,0,35.00,-6.19,-6.55
988853,1844,0,169,0,35.00,-6.25,-6.56
988875,2387,0,181,0,35.00,-6.23,-6.56
988897,2847,0,191,0,35.00,-6.22,-6.60
988919,2825,0,211,0,35.00,-6.22,-6.62
988941,2632,0,197,0,35.00,-6.18,-6.57
988963,2013,0,187,0,35.00,-6.23,-6.58
988985,1406,0,181,0,35.00,-6.21,-6.61
989509,1007,0,165,0,33.97,-6.24,-6.55
989549,1375,0,167,0,35.00,-6.23,-6.57
989571,1333,0,167,0,35.00,-6.22,-6.59
989593,2007,0,183,0,35.00,-6.24,-6.57
989615,2397,0,184,0,35.00,-6.24,-6.55
989637,2835,0,202,0,35.00,-6.24,-6.58
989659,2809,0,213,0,35.00,-6.25,-6.58
989681,2377,0,206,0,35.00,-6.22,-6.62
989703,1753,0,181,0,35.00,-6.22,-6.59
989725,1169,0,168,0,35.00,-6.23,-6.60
989747,891,0,159,0,35.00,-6.19,-6.61
989790,1041,0,169,0,35.00,-6.24,-6.62
989812,1784,0,171,0,35.00,-6.24,-6.61
989834,2207,0,185,0,35.00,-6.23,-6.54
989856,2653,0,191,0,35.00,-6.22,-6.62
989878,2811,0,215,0,35.00,-6.24,-6.59
989900,2665,0,199,0,35.00,-6.19,-6.61
989922,2123,0,203,0,35.00,-6.24,-6.57
989944,1401,0,179,0,35.00,-6.24,-6.58
989966,1013,0,167,0,35.00,-6.23,-6.56
989988,939,0,158,0,35.00,-6.21,-6.60
990030,1224,0,159,0,35.00,-6.21,-6.56
990052,1871,0,171,0,35.00,-6.21,-6.57
990074,2332,0,185,0,35.00,-6.21,-6.56
990096,2683,0,191,0,35.00,-6.22,-6.57
990118,2808,0,203,0,35.00,-6.27,-6.59
990140,2501,0,191,0,35.00,-6.22,-6.56
990162,2019,0,187,0,35.00,-6.19,-6.56
990184,1354,0,171,0,35.00,-6.25,-6.58
990206,1022,0,165,0,35.00,-6.25,-6.54
990228,1007,0,157,0,35.00,-6.23,-6.60
990271,1285,0,163,0,35.00,-6.22,-6.59
990293,2155,0,172,0,35.00,-6.19,-6.58
990315,2575,0,201,0,35.00,-6.25,-6.55
990337,2794,0,199,0,35.00,-6.23,-6.59
990359,2695,0,201,0,35.00,-6.24,-6.59
990381,2205,0,190,0,35.00,-6.20,-6.62
990403,1556,0,174,0,35.00,-6.22,-6.59
990425,1107,0,168,0,35.00,-6.21,-6.58
990447,909,0,167,0,35.00,-6.25,-6.60
990469,1034,0,157,0,35.00,-6.19,-6.61
990511,1496,0,168,0,35.00,-6.24,-6.56
990533,2195,0,198,0,35.00,-6.20,-6.60
990555,2653,0,199,0,35.00,-6.26,-6.60
990577,2835,0,210,0,35.00,-6.23,-6.56
990599,2669,0,203,0,35.00,-6.26,-6.60
990621,2227,0,203,0,35.00,-6.25,-6.58
990643,1463,0,175,0,35.00,-6.22,-6.55
990665,1047,0,167,0,35.00,-6.25,-6.56
990687,911,0,157,0,35.00,-6.23,-6.62
990709,1225,0,157,0,35.00,-6.24,-6.59
990731,1747,0,167,0,35.00,-6.24,-6.59
990772,2215,0,187,0,35.00,-6.27,-6.59
990794,2487,0,191,0,35.00,-6.22,-6.60
990816,2747,0,212,0,35.00,-6.22,-6.57
990838,2757,0,205,0,35.00,-6.23,-6.56
990860,2365,0,207,0,35.00,-6.24,-6.60
990882,1745,0,191,0,35.00,-6.25,-6.60
990904,1263,0,170,0,35.00,-6.22,-6.58
990926,931,0,164,0,35.00,-6.26,-6.57
990948,1113,0,159,0,35.00,-6.24,-6.59
990970,1384,0,159,0,35.00,-6.23,-6.57
991542,1944,0,175,0,33.68,-6.21,-6.58
991574,1119,0,176,0,35.00,-6.26,-6.58
991596,2841,0,199,0,35.00,-6.24,-6.60
991618,2630,0,200,0,35.00,-6.20,-6.59
991640,2121,0,183,0,35.00,-6.24,-6.59
991662,1528,0,172,0,35.00,-6.17,-6.56
991684,1343,0,173,0,35.00,-6.22,-6.58
991706,958,0,169,0,35.00,-6.23,-6.57
991728,1256,0,167,0,35.00,-6.23,-6.62
991750,1513,0,165,0,35.00,-6.22,-6.61
991772,2155,0,175,0,35.00,-6.25,-6.61
991814,2556,0,199,0,35.00,-6.26,-6.56
991836,2879,0,205,0,35.00,-6.18,-6.57
991858,2678,0,207,0,35.00,-6.23,-6.60
991880,2207,0,211,0,35.00,-6.20,-6.60
991902,1453,0,184,0,35.00,-6.27,-6.59
991924,1021,0,167,0,35.00,-6.23,-6.57
991946,905,0,171,0,35.00,-6.24,-6.59
991968,1159,0,165,0,35.00,-6.21,-6.51
991990,1671,0,173,0,35.00,-6.22,-6.60
992558,2247,0,184,0,34.12,-6.23,-6.60
992596,1957,0,185,0,35.00,-6.22,-6.58
992618,2491,0,201,0,35.00,-6.24,-6.58
992640,2069,0,202,0,35.00,-6.23,-6.57
992662,1361,0,179,0,35.00,-6.22,-6.61
992684,991,0,171,0,35.00,-6.23,-6.57
992706,919,0,158,0,35.00,-6.21,-6.57
992728,1273,0,163,0,35.00,-6.27,-6.55
992750,1785,0,167,0,35.00,-6.26,-6.58
992772,2357,0,187,0,35.00,-6.22,-6.60
992794,2659,0,185,0,35.00,-6.25,-6.57
992836,2731,0,206,0,35.00,-6.20,-6.58
992858,2515,0,198,0,35.00,-6.22,-6.59
992880,1919,0,188,0,35.00,-6.22,-6.56
992902,1337,0,180,0,35.00,-6.20,-6.61
992924,1001,0,169,0,35.00,-6.21,-6.56
992946,935,0,157,0,35.00,-6.25,-6.55
992968,1311,0,164,0,35.00,-6.22,-6.63
992990,1837,0,181,0,35.00,-6.21,-6.60
993574,2405,0,188,0,34.25,-6.19,-6.59
993605,2847,0,199,0,35.00,-6.22,-6.59
993627,1275,0,165,0,35.00,-6.24,-6.59
993649,1708,0,169,0,35.00,-6.21,-6.60
993671,2220,0,183,0,35.00,-6.24,-6.57
993693,2635,0,189,0,35.00,-6.20,-6.60
993715,2844,0,201,0,35.00,-6.19,-6.56
993737,2581,0,201,0,35.00,-6.20,-6.60
993779,2119,0,191,0,35.00,-6.19,-6.58
993801,1493,0,178,0,35.00,-6.20,-6.60
993823,973,0,159,0,35.00,-6.17,-6.56
993845,949,0,163,0,35.00,-6.27,-6.58
993867,1256,0,164,0,35.00,-6.21,-6.59
993889,1779,0,171,0,35.00,-6.25,-6.57
993911,2276,0,185,0,35.00,-6.24,-6.58
993933,2712,0,197,0,35.00,-6.24,-6.59
993955,2827,0,211,0,35.00,-6.23,-6.60
993977,2599,0,207,0,35.00,-6.20,-6.57
994589,2021,0,199,0,33.66,-6.23,-6.57
994620,2421,0,185,0,35.00,-6.22,-6.60
994642,1123,0,167,0,35.00,-6.20,-6.57
994664,943,0,167,0,35.00,-6.24,-6.59
994686,1087,0,167,0,35.00,-6.23,-6.55
994708,1588,0,173,0,35.00,-6.21,-6.56
994730,2217,0,183,0,35.00,-6.19,-6.54
994752,2617,0,197,0,35.00,-6.22,-6.54
994774,2837,0,204,0,35.00,-6.22,-6.58
994796,2571,0,199,0,35.00,-6.21,-6.56
994818,2317,0,203,0,35.00,-6.24,-6.56
994840,1501,0,179,0,35.00,-6.24,-6.53
994881,1064,0,164,0,35.00,-6.24,-6.57
994903,1005,0,160,0,35.00,-6.21,-6.59
994925,1064,0,156,0,35.00,-6.22,-6.56
994947,1381,0,160,0,35.00,-6.22,-6.59
994969,1881,0,173,0,35.00,-6.21,-6.59
994991,2349,0,183,0,35.00,-6.26,-6.62
995353,2763,0,200,0,33.80,-6.22,-6.61
995382,2777,0,201,0,35.00,-6.21,-6.57
995404,1017,0,155,0,35.00,-6.18,-6.58
995426,1239,0,159,0,35.00,-6.23,-6.58
995448,1763,0,167,0,35.00,-6.21,-6.59
995470,2323,0,185,0,35.00,-6.18,-6.56
995492,2659,0,185,0,35.00,-6.24,-6.56
995514,2847,0,211,0,35.00,-6.19,-6.57
995536,2575,0,201,0,35.00,-6.22,-6.60
995558,2077,0,202,0,35.00,-6.27,-6.59
995580,1481,0,171,0,35.00,-6.21,-6.59
995623,971,0,163,0,35.00,-6.26,-6.57
995645,1151,0,163,0,35.00,-6.22,-6.58
995667,1460,0,167,0,35.00,-6.24,-6.56
995689,2004,0,185,0,35.00,-6.23,-6.62
995711,2527,0,188,0,35.00,-6.24,-6.60
995733,2740,0,205,0,35.00,-6.22,-6.57
995755,2681,0,206,0,35.00,-6.22,-6.59
995777,2293,0,199,0,35.00,-6.20,-6.56
995799,1677,0,179,0,35.00,-6.19,-6.59
995821,1133,0,168,0,35.00,-6.20,-6.56
995863,949,0,164,0,35.00,-6.24,-6.56
995885,1205,0,157,0,35.00,-6.19,-6.58
995907,1583,0,171,0,35.00,-6.19,-6.57
995929,2139,0,181,0,35.00,-6.25,-6.60
995951,2547,0,189,0,35.00,-6.24,-6.58
995973,2788,0,201,0,35.00,-6.19,-6.58
995995,2749,0,202,0,35.00,-6.23,-6.59
996369,2207,0,204,0,33.97,-6.17,-6.59
996404,2605,0,185,0,35.00,-6.22,-6.56
996426,1381,0,170,0,35.00,-6.24,-6.58
996448,1899,0,172,0,35.00,-6.25,-6.56
996470,2413,0,189,0,35.00,-6.23,-6.54
996492,2796,0,205,0,35.00,-6.23,-6.61
996514,2725,0,199,0,35.00,-6.20,-6.58
996536,2340,0,181,0,35.00,-6.27,-6.58
996558,1883,0,189,0,35.00,-6.22,-6.60
996580,1254,0,173,0,35.00,-6.23,-6.61
996602,751,0,154,0,35.00,-6.23,-6.60
996624,885,0,165,0,35.00,-6.22,-6.56
996665,1383,0,169,0,35.00,-6.26,-6.59
996687,1619,0,173,0,35.00,-6.20,-6.58
996709,2310,0,189,0,35.00,-6.21,-6.62
996731,2723,0,189,0,35.00,-6.26,-6.60
996753,2939,0,197,0,35.00,-6.24,-6.56
996775,2723,0,198,0,35.00,-6.21,-6.57
996797,2137,0,187,0,35.00,-6.20,-6.61
996819,1355,0,167,0,35.00,-6.22,-6.57
996841,1021,0,167,0,35.00,-6.21,-6.59
996863,853,0,154,0,35.00,-6.22,-6.63
996905,1105,0,163,0,35.00,-6.25,-6.60
996927,1679,0,165,0,35.00,-6.24,-6.58
996949,2219,0,189,0,35.00,-6.25,-6.60
996971,2623,0,201,0,35.00,-6.27,-6.59
996993,2760,0,205,0,35.00,-6.22,-6.62
997385,2665,0,206,0,33.70,-6.25,-6.61
997426,1834,0,175,0,35.00,-6.23,-6.57
997448,2093,0,179,0,35.00,-6.22,-6.58
997470,2521,0,185,0,35.00,-6.21,-6.59
997492,2809,0,203,0,35.00,-6.19,-6.58
997514,2775,0,202,0,35.00,-6.24,-6.55
997536,2211,0,197,0,35.00,-6.21,-6.58
997558,1715,0,183,0,35.00,-6.23,-6.61
997580,1179,0,167,0,35.00,-6.21,-6.59
997602,731,0,167,0,35.00,-6.22,-6.53
997624,1109,0,169,0,35.00,-6.21,-6.62
997646,1335,0,153,0,35.00,-6.26,-6.61
997687,2027,0,181,0,35.00,-6.21,-6.61
997709,2341,0,189,0,35.00,-6.24,-6.56
997731,2840,0,196,0,35.00,-6.24,-6.59
997753,2745,0,199,0,35.00,-6.20,-6.62
997775,2567,0,201,0,35.00,-6.23,-6.61
997797,1943,0,183,0,35.00,-6.22,-6.60
997819,1327,0,179,0,35.00,-6.19,-6.60
997841,1035,0,163,0,35.00,-6.23,-6.62
997863,979,0,155,0,35.00,-6.19,-6.59
997885,1341,0,157,0,35.00,-6.21,-6.61
997928,1755,0,169,0,35.00,-6.25,-6.61
997950,2667,0,199,0,35.00,-6.27,-6.60
997972,2842,0,199,0,35.00,-6.20,-6.53
997994,2677,0,197,0,35.00,-6.25,-6.61
998401,2267,0,203,0,34.24,-6.20,-6.59
998429,1013,0,163,0,35.00,-6.22,-6.60
998451,2749,0,202,0,35.00,-6.28,-6.59
998473,2813,0,204,0,35.00,-6.22,-6.59
998495,2526,0,204,0,35.00,-6.21,-6.57
998517,1910,0,181,0,35.00,-6.21,-6.55
998539,1321,0,171,0,35.00,-6.24,-6.59
998561,927,0,157,0,35.00,-6.28,-6.58
998583,1065,0,160,0,35.00,-6.24,-6.59
998605,1294,0,159,0,35.00,-6.20,-6.60
998627,1948,0,172,0,35.00,-6.22,-6.60
998669,2506,0,187,0,35.00,-6.22,-6.64
998691,2911,0,185,0,35.00,-6.24,-6.57
998713,2811,0,189,0,35.00,-6.24,-6.59
998735,2415,0,199,0,35.00,-6.24,-6.58
998757,1797,0,182,0,35.00,-6.24,-6.58
998779,1271,0,171,0,35.00,-6.25,-6.57
998801,927,0,163,0,35.00,-6.21,-6.56
998823,990,0,165,0,35.00,-6.26,-6.65
998845,1377,0,164,0,35.00,-6.25,-6.58
998867,1951,0,171,0,35.00,-6.23,-6.59
998889,2385,0,185,0,35.00,-6.21,-6.60
998930,2693,0,197,0,35.00,-6.23,-6.60
998952,2835,0,199,0,35.00,-6.19,-6.62
998974,2515,0,205,0,35.00,-6.22,-6.55
998996,2129,0,187,0,35.00,-6.21,-6.56
999417,1493,0,179,0,33.81,-6.21,-6.57
999451,1245,0,169,0,35.00,-6.26,-6.59
999473,2851,0,187,0,35.00,-6.25,-6.59
999495,2445,0,197,0,35.00,-6.20,-6.57
999517,1723,0,184,0,35.00,-6.24,-6.58
999539,1102,0,179,0,35.00,-6.21,-6.62
999561,840,0,165,0,35.00,-6.22,-6.58
999583,957,0,157,0,35.00,-6.17,-6.60
999605,1390,0,169,0,35.00,-6.24,-6.58
999627,1997,0,183,0,35.00,-6.22,-6.59
999649,2507,0,191,0,35.00,-6.21,-6.59
999692,2814,0,201,0,35.00,-6.25,-6.56
999714,2569,0,203,0,35.00,-6.25,-6.60
999736,2043,0,201,0,35.00,-6.21,-6.57
999758,1429,0,180,0,35.00,-6.19,-6.61
999780,1013,0,169,0,35.00,-6.20,-6.54
999802,967,0,156,0,35.00,-6.23,-6.58
999824,1293,0,165,0,35.00,-6.21,-6.56
999846,1813,0,173,0,35.00,-6.22,-6.56
999868,2309,0,186,0,35.00,-6.22,-6.56
999890,2663,0,191,0,35.00,-6.26,-6.60
999932,2795,0,211,0,35.00,-6.22,-6.61
999954,2440,0,199,0,35.00,-6.20,-6.61
999976,1889,0,189,0,35.00,-6.22,-6.58
999998,1316,0,173,0,35.00,-6.20,-6.57
1000020,975,0,169,0,35.00,-6.20,-6.60
1000042,1073,0,169,0,35.00,-6.22,-6.58
1000064,1397,0,162,0,35.00,-6.19,-6.59
1000086,1875,0,175,0,35.00,-6.24,-6.56
1000108,2333,0,175,0,35.00,-6.18,-6.53
1000130,2729,0,188,0,35.00,-6.19,-6.59
1000152,2763,0,205,0,35.00,-6.23,-6.56
1000193,2460,0,211,0,35.00,-6.22,-6.59
1000215,2275,0,206,0,35.00,-6.23,-6.59
1000237,1627,0,184,0,35.00,-6.23,-6.59
1000259,1252,0,172,0,35.00,-6.25,-6.59
1000281,1065,0,153,0,35.00,-6.18,-6.57
1000303,1277,0,159,0,35.00,-6.21,-6.61
1000325,1643,0,165,0,35.00,-6.21,-6.62
1000347,2184,0,171,0,35.00,-6.22,-6.57
1000369,2575,0,183,0,35.00,-6.20,-6.59
1000391,2771,0,187,0,35.00,-6.19,-6.58
1000433,2603,0,197,0,35.00,-6.21,-6.56
1000455,2309,0,189,0,35.00,-6.25,-6.56
1000477,1595,0,185,0,35.00,-6.20,-6.63
1000499,1133,0,175,0,35.00,-6.20,-6.57
1000521,1021,0,160,0,35.00,-6.20,-6.55
1000543,1139,0,159,0,35.00,-6.25,-6.61
1000565,1417,0,174,0,35.00,-6.19,-6.62
1000587,1769,0,198,0,35.00,-6.22,-6.59
1000609,2287,0,214,0,35.00,-6.24,-6.56
1000631,2763,0,219,0,35.00,-6.22,-6.53
1000653,2579,0,212,0,35.00,-6.18,-6.59
1000694,2223,0,212,0,35.00,-6.19,-6.57
1000716,1915,0,181,0,35.00,-6.21,-6.58
1000738,1215,0,163,0,35.00,-6.19,-6.58
1000760,906,0,161,0,35.00,-6.18,-6.58
1000782,1092,0,160,0,35.00,-6.21,-6.60
1000804,1691,0,181,0,35.00,-6.27,-6.66
1000826,1847,0,169,0,35.00,-6.18,-6.61
1000848,1715,0,175,0,35.00,-6.26,-6.58
1000870,1611,0,187,0,35.00,-6.20,-6.59
1000892,1963,0,199,0,35.00,-6.22,-6.64
1000935,1877,0,199,0,35.00,-6.15,-6.53
1000957,1403,0,188,0,35.00,-6.17,-6.60
1000979,1236,0,181,0,35.00,-6.19,-6.68
1001703,573,0,192,0,34.77,-6.21,-6.58
1001736,969,0,316,0,35.00,-6.28,-6.53
1001758,0,0,337,0,35.00,-6.14,-6.57
1001780,0,0,357,0,35.00,-6.21,-6.53
1001802,0,0,295,0,35.00,-6.22,-6.57
1001824,0,0,153,0,35.00,-6.21,-6.51
1001846,295,0,61,0,35.00,-6.27,-6.54
1001868,2215,0,28,0,35.00,-6.24,-6.59
1001890,4095,0,27,0,35.00,-6.16,-6.57
1001912,4095,0,22,0,35.00,-6.22,-6.60
1001934,4095,0,25,0,35.00,-6.22,-6.58
1001956,4095,0,25,0,35.00,-6.27,-6.56
1001997,4095,0,28,0,35.00,-6.25,-6.51
1002720,4095,0,76,0,34.35,-6.24,-6.63
1002759,0,0,203,0,35.00,-6.26,-6.55
1002781,0,0,187,0,35.00,-6.23,-6.52
1002803,77,0,191,0,35.00,-6.26,-6.55
1002825,659,0,201,0,35.00,-6.23,-6.57
1002847,1349,0,217,0,35.00,-6.22,-6.54
1002869,2329,0,234,0,35.00,-6.26,-6.56
1002891,3101,0,233,0,35.00,-6.25,-6.58
1002913,3543,0,235,0,35.00,-6.28,-6.55
1002935,4095,0,217,0,35.00,-6.28,-6.64
1002957,3275,0,211,0,35.00,-6.29,-6.66
1002999,4095,0,217,0,35.00,-6.22,-6.53
1003021,4095,0,125,0,35.00,-6.17,-6.55
1003043,4095,0,85,0,35.00,-6.16,-6.50
1003065,4095,0,53,0,35.00,-6.19,-6.55
1003087,4095,0,31,0,35.00,-6.25,-6.54
1003109,4095,0,31,0,35.00,-6.15,-6.54
1003131,4095,0,47,0,35.00,-6.15,-6.50
1003153,4095,0,44,0,35.00,-6.23,-6.58
1003175,3914,0,47,0,35.00,-6.21,-6.58
1003197,0,0,51,0,35.00,-6.20,-6.59
1003240,0,0,88,0,35.00,-6.24,-6.56
1003262,0,0,301,0,35.00,-6.22,-6.59
1003284,0,0,345,0,35.00,-6.24,-6.60
1003306,0,0,427,0,35.00,-6.23,-6.57
1003328,0,0,497,0,35.00,-6.22,-6.54
1003350,0,0,479,0,35.00,-6.23,-6.56
1003372,0,0,419,0,35.00,-6.19,-6.56
1003394,0,0,365,0,35.00,-6.24,-6.55
1003416,0,0,345,0,35.00,-6.21,-6.54
1003438,186,0,329,0,35.00,-6.28,-6.61
1003480,0,0,299,0,35.00,-6.25,-6.55
1003502,1351,0,296,0,35.00,-6.23,-6.57
1003524,1851,0,279,0,35.00,-6.24,-6.56
1003546,2701,0,275,0,35.00,-6.15,-6.60
1003568,4095,0,285,0,35.00,-6.20,-6.49
1003590,4095,0,286,0,35.00,-6.21,-6.59
1003612,4094,0,309,0,35.00,-6.20,-6.57
1003634,4057,0,315,0,35.00,-6.24,-6.58
1003656,3676,0,296,0,35.00,-6.25,-6.60
1003678,2921,0,280,0,35.00,-6.22,-6.53
1003721,2707,0,251,0,35.00,-6.26,-6.59
1003743,2876,0,233,0,35.00,-6.24,-6.64
1003765,3235,0,239,0,35.00,-6.26,-6.61
1003787,3947,0,239,0,35.00,-6.24,-6.58
1003809,4095,0,236,0,35.00,-6.22,-6.59
1003831,4095,0,236,0,35.00,-6.24,-6.62
1003853,4095,0,221,0,35.00,-6.25,-6.56
1003875,3799,0,225,0,35.00,-6.22,-6.55
1003897,3103,0,200,0,35.00,-6.22,-6.59
1003919,2517,0,181,0,35.00,-6.22,-6.55
1003961,2163,0,171,0,35.00,-6.20,-6.58
1003983,1791,0,180,0,35.00,-6.25,-6.56
1004505,2173,0,189,0,33.79,-6.25,-6.63
1004542,2076,0,185,0,35.00,-6.26,-6.62
1004564,1294,0,175,0,35.00,-6.25,-6.57
1004586,1711,0,188,0,35.00,-6.22,-6.54
1004608,2233,0,197,0,35.00,-6.25,-6.59
1004630,2429,0,199,0,35.00,-6.24,-6.58
1004652,2531,0,205,0,35.00,-6.26,-6.57
1004674,2174,0,203,0,35.00,-6.26,-6.52
1004696,1735,0,175,0,35.00,-6.17,-6.56
1004718,1172,0,169,0,35.00,-6.19,-6.57
1004740,1055,0,168,0,35.00,-6.26,-6.55
1004762,1300,0,161,0,35.00,-6.24,-6.57
1004803,1743,0,163,0,35.00,-6.25,-6.60
1004825,1768,0,176,0,35.00,-6.23,-6.57
1004847,2171,0,175,0,35.00,-6.18,-6.61
1004869,2535,0,189,0,35.00,-6.23,-6.59
1004891,4095,0,135,0,35.00,-6.25,-6.58
1004913,2619,0,133,0,35.00,-6.25,-6.54
1004935,1687,0,143,0,35.00,-6.27,-6.57
1004957,1331,0,147,0,35.00,-6.23,-6.56
1004979,1288,0,143,0,35.00,-6.25,-6.58
1005514,1451,0,153,0,33.71,-6.25,-6.60
1005545,1839,0,197,0,35.00,-6.20,-6.59
1005567,2407,0,189,0,35.00,-6.21,-6.58
1005589,2775,0,202,0,35.00,-6.23,-6.58
1005611,2913,0,205,0,35.00,-6.24,-6.57
1005633,2671,0,200,0,35.00,-6.21,-6.54
1005655,2105,0,187,0,35.00,-6.21,-6.54
1005677,1631,0,179,0,35.00,-6.25,-6.58
1005699,1358,0,167,0,35.00,-6.20,-6.61
1005721,1577,0,168,0,35.00,-6.20,-6.58
1005743,1844,0,159,0,35.00,-6.27,-6.62
1005785,2053,0,169,0,35.00,-6.21,-6.58
1005807,2036,0,203,0,35.00,-6.27,-6.53
1005829,2473,0,213,0,35.00,-6.23,-6.60
1005851,3128,0,206,0,35.00,-6.20,-6.56
1005873,2789,0,189,0,35.00,-6.21,-6.54
1005895,1831,0,175,0,35.00,-6.25,-6.57
1005917,1243,0,173,0,35.00,-6.23,-6.61
1005939,1043,0,165,0,35.00,-6.27,-6.54
1005961,983,0,165,0,35.00,-6.21,-6.60
1005983,1134,0,175,0,35.00,-6.24,-6.56
1006530,1640,0,189,0,34.16,-6.24,-6.59
1006567,2597,0,191,0,35.00,-6.23,-6.60
1006589,2584,0,195,0,35.00,-6.21,-6.56
1006611,2463,0,207,0,35.00,-6.22,-6.56
1006633,2137,0,205,0,35.00,-6.25,-6.58
1006655,1485,0,188,0,35.00,-6.22,-6.57
1006677,1099,0,179,0,35.00,-6.23,-6.58
1006699,853,0,166,0,35.00,-6.27,-6.56
1006721,1085,0,173,0,35.00,-6.21,-6.57
1006743,1555,0,185,0,35.00,-6.26,-6.58
1006765,2035,0,185,0,35.00,-6.19,-6.57
1006807,2059,0,183,0,35.00,-6.15,-6.55
1006829,2822,0,211,0,35.00,-6.27,-6.56
1006851,2835,0,220,0,35.00,-6.22,-6.53
1006873,2423,0,205,0,35.00,-6.20,-6.56
1006895,1807,0,189,0,35.00,-6.22,-6.53
1006917,1320,0,175,0,35.00,-6.24,-6.52
1006939,1082,0,169,0,35.00,-6.25,-6.53
1006961,1181,0,165,0,35.00,-6.23,-6.62
1006983,1555,0,169,0,35.00,-6.24,-6.58
1007546,2056,0,183,0,34.08,-6.19,-6.54
1007576,2605,0,205,0,35.00,-6.23,-6.53
1007598,1161,0,171,0,35.00,-6.23,-6.59
1007620,1102,0,175,0,35.00,-6.27,-6.59
1007642,1326,0,169,0,35.00,-6.21,-6.57
1007664,1819,0,175,0,35.00,-6.25,-6.58
1007686,2313,0,173,0,35.00,-6.19,-6.53
1007708,2782,0,187,0,35.00,-6.25,-6.58
1007749,2921,0,189,0,35.00,-6.23,-6.60
1007771,2551,0,191,0,35.00,-6.23,-6.56
1007793,2215,0,197,0,35.00,-6.20,-6.55
1007815,1495,0,169,0,35.00,-6.26,-6.60
1007837,843,0,155,0,35.00,-6.24,-6.53
1007859,127,0,135,0,35.00,-6.23,-6.52
1007881,0,0,100,0,35.00,-6.17,-6.48
1007903,111,0,183,0,35.00,-6.22,-6.51
1007925,149,0,237,0,35.00,-6.25,-6.57
1007947,1855,0,333,0,35.00,-6.26,-6.63
1007969,4038,0,365,0,35.00,-6.25,-6.58
1008562,4095,0,325,0,34.05,-6.21,-6.55
1008592,1604,0,203,0,35.00,-6.24,-6.53
1008614,1801,0,211,0,35.00,-6.23,-6.57
1008636,1485,0,189,0,35.00,-6.22,-6.59
1008658,1274,0,174,0,35.00,-6.21,-6.59
1008680,1245,0,189,0,35.00,-6.23,-6.56
1008702,1343,0,211,0,35.00,-6.24,-6.62
1008724,1708,0,215,0,35.00,-6.20,-6.58
1008746,2414,0,229,0,35.00,-6.25,-6.63
1008768,2983,0,252,0,35.00,-6.26,-6.59
1008790,2879,0,267,0,35.00,-6.18,-6.53
1008832,2279,0,249,0,35.00,-6.22,-6.50
1008854,1755,0,227,0,35.00,-6.13,-6.33
1008876,1339,0,203,0,35.00,-6.19,-6.39
1008898,1293,0,199,0,35.00,-6.16,-6.48
1008920,1549,0,200,0,35.00,-6.26,-6.58
1008942,1214,0,187,0,35.00,-6.28,-6.56
1008964,1301,0,184,0,35.00,-6.24,-6.65
1008986,2478,0,189,0,35.00,-6.21,-6.62
1009578,2573,0,187,0,33.82,-6.28,-6.56
1009614,1203,0,170,0,35.00,-6.25,-6.60
1009636,485,0,143,0,35.00,-6.24,-6.65
1009658,1315,0,155,0,35.00,-6.27,-6.59
1009680,1299,0,188,0,35.00,-6.21,-6.57
1009702,344,0,341,0,35.00,-6.22,-6.57
1009724,927,0,361,0,35.00,-6.22,-6.68
1009746,1303,0,317,0,35.00,-6.27,-6.51
1009768,2276,0,415,0,35.00,-6.21,-6.54
1009790,1635,0,405,0,35.00,-6.17,-6.60
1009812,2071,0,211,0,35.00,-6.23,-6.57
1009854,2407,0,147,0,35.00,-6.24,-6.60
1009876,2373,0,117,0,35.00,-6.24,-6.56
1009898,1405,0,108,0,35.00,-6.23,-6.52
1009920,1656,0,127,0,35.00,-6.27,-6.55
1009942,2189,0,148,0,35.00,-6.22,-6.50
1009964,2787,0,166,0,35.00,-6.24,-6.50
1009986,4095,0,203,0,35.00,-6.24,-6.51
1010348,4095,0,201,0,33.85,-6.22,-6.48
1010376,3483,0,46,0,35.00,-6.21,-6.55
1010398,2771,0,57,0,35.00,-6.24,-6.56
1010420,3588,0,136,0,35.00,-6.25,-6.62
1010442,2965,0,181,0,35.00,-6.25,-6.57
1010464,2876,0,236,0,35.00,-6.22,-6.57
1010486,2829,0,281,0,35.00,-6.29,-6.61
1010508,3128,0,315,0,35.00,-6.27,-6.50
1010530,2398,0,303,0,35.00,-6.23,-6.59
1010552,1390,0,267,0,35.00,-6.21,-6.56
1010574,186,0,191,0,35.00,-6.20,-6.51
1010616,0,0,141,0,35.00,-6.23,-6.58
1010638,0,0,99,0,35.00,-6.26,-6.62
1010660,0,0,93,0,35.00,-6.26,-6.55
1010682,365,0,105,0,35.00,-6.22,-6.57
1010704,1319,0,133,0,35.00,-6.26,-6.57
1010726,2264,0,157,0,35.00,-6.25,-6.57
1010748,3027,0,189,0,35.00,-6.26,-6.56
1010770,3119,0,203,0,35.00,-6.24,-6.57
1010792,2191,0,187,0,35.00,-6.19,-6.56
1010814,1005,0,171,0,35.00,-6.25,-6.54
1010857,277,0,165,0,35.00,-6.25,-6.52
1010879,47,0,152,0,35.00,-6.24,-6.53
1010901,437,0,150,0,35.00,-6.25,-6.56
1010923,1673,0,186,0,35.00,-6.24,-6.54
1010945,2339,0,191,0,35.00,-6.22,-6.59
1010967,3206,0,217,0,35.00,-6.23,-6.56
1010989,3117,0,219,0,35.00,-6.22,-6.59
1011357,2681,0,221,0,34.09,-6.28,-6.56
1011398,653,0,228,0,35.00,-6.25,-6.62
1011420,669,0,253,0,35.00,-6.20,-6.58
1011442,1451,0,284,0,35.00,-6.25,-6.52
1011464,2249,0,325,0,35.00,-6.22,-6.59
1011486,2879,0,299,0,35.00,-6.22,-6.57
1011508,3209,0,265,0,35.00,-6.28,-6.62
1011530,3192,0,223,0,35.00,-6.24,-6.58
1011552,2521,0,172,0,35.00,-6.30,-6.56
1011574,1500,0,123,0,35.00,-6.27,-6.59
1011596,793,0,99,0,35.00,-6.27,-6.52
1011638,327,0,84,0,35.00,-6.24,-6.57
1011660,344,0,82,0,35.00,-6.50,-7.07
1011682,1443,0,127,0,35.00,-5.91,-6.68
1011704,224,0,136,0,35.00,-5.55,-5.98
1011726,2099,0,199,0,35.00,-6.45,-6.72
1011748,3052,0,239,0,35.00,-6.30,-6.61
1011770,1977,0,236,0,35.00,-6.15,-6.49
1011792,1309,0,207,0,35.00,-6.26,-6.65
1011814,697,0,190,0,35.00,-6.22,-6.58
1011836,218,0,167,0,35.00,-6.25,-6.58
1011858,377,0,157,0,35.00,-6.24,-6.58
1011899,883,0,135,0,35.00,-6.24,-6.57
1011921,991,0,110,0,35.00,-6.24,-6.56
1011943,1806,0,138,0,35.00,-6.20,-6.58
1011965,2799,0,180,0,35.00,-6.25,-6.57
1011987,3881,0,223,0,35.00,-6.25,-6.57
1012373,4018,0,229,0,33.79,-6.26,-6.61
1012401,4095,0,61,0,35.00,-6.52,-6.50
1012423,4095,0,59,0,35.00,-6.25,-6.57
1012445,1693,0,21,0,35.00,-6.21,-6.54
1012467,925,0,7,0,35.00,-6.29,-6.43
1012489,1285,0,0,0,35.00,-6.15,-6.62
1012511,4095,0,17,0,35.00,-6.34,-6.30
1012533,4095,0,22,0,35.00,-6.32,-6.66
1012555,3127,0,17,0,35.00,-6.51,-6.36
1012577,4095,0,46,0,35.00,-6.24,-6.48
1012599,4095,0,53,0,35.00,-6.30,-6.44
1012641,4095,0,54,0,35.00,-6.30,-6.54
1012663,4095,0,7,0,35.00,-6.32,-6.53
1012685,4095,0,3,0,35.00,-6.32,-6.49
1012707,4095,0,9,0,35.00,-6.26,-6.49
1012729,4095,0,11,0,35.00,-6.34,-6.49
1012751,4095,0,13,0,35.00,-6.23,-6.52
1012773,0,0,0,0,35.00,-6.28,-6.56
1012795,0,0,21,0,35.00,-6.30,-6.50
1012817,0,0,30,0,35.00,-6.24,-6.50
1012839,0,0,75,0,35.00,-6.26,-6.51
1012881,0,0,90,0,35.00,-6.30,-6.52
1012903,0,0,40,0,35.00,-6.28,-6.53
1012925,0,0,42,0,35.00,-6.27,-6.49
1012947,0,0,59,0,35.00,-6.32,-6.48
1012969,0,0,95,0,35.00,-6.25,-6.50
1012991,0,0,141,0,35.00,-6.28,-6.51
1013388,0,0,165,0,33.71,-6.30,-6.50
1013423,2950,0,379,0,35.00,-6.32,-6.52
1013445,3603,0,349,0,35.00,-6.26,-6.50
1013467,4095,0,361,0,35.00,-6.28,-6.47
1013489,4095,0,343,0,35.00,-6.25,-6.47
1013511,3941,0,332,0,35.00,-6.31,-6.55
1013533,3755,0,331,0,35.00,-6.20,-6.52
1013555,3399,0,313,0,35.00,-6.20,-6.41
1013577,3231,0,298,0,35.00,-6.28,-6.50
1013599,4095,0,311,0,35.00,-6.25,-6.50
1013621,4095,0,309,0,35.00,-6.29,-6.51
1013663,4095,0,301,0,35.00,-6.32,-6.50
1013685,4095,0,300,0,35.00,-6.32,-6.51
1013707,4095,0,303,0,35.00,-6.27,-6.57
1013729,4095,0,297,0,35.00,-6.31,-6.51
1013751,4095,0,298,0,35.00,-6.25,-6.52
1013773,3628,0,285,0,35.00,-6.27,-6.47
1013795,3015,0,275,0,35.00,-6.25,-6.50
1013817,2745,0,268,0,35.00,-6.32,-6.51
1013839,2971,0,267,0,35.00,-6.25,-6.48
1013861,3404,0,279,0,35.00,-6.26,-6.53
1013904,4029,0,279,0,35.00,-6.27,-6.53
1013926,4095,0,283,0,35.00,-6.28,-6.52
1013948,4088,0,285,0,35.00,-6.25,-6.51
1013970,3513,0,281,0,35.00,-6.28,-6.51
1013992,2905,0,263,0,35.00,-6.29,-6.48
1014405,2283,0,247,0,33.88,-6.28,-6.55
1014445,3047,0,247,0,35.00,-6.31,-6.53
1014467,2827,0,245,0,35.00,-6.26,-6.50
1014489,2674,0,244,0,35.00,-6.27,-6.53
1014511,2149,0,228,0,35.00,-6.29,-6.53
1014533,1491,0,205,0,35.00,-6.28,-6.51
1014555,1135,0,203,0,35.00,-6.27,-6.52
1014577,1241,0,201,0,35.00,-6.29,-6.50
1014599,1387,0,191,0,35.00,-6.22,-6.50
1014621,2069,0,213,0,35.00,-6.24,-6.50
1014643,2059,0,217,0,35.00,-6.23,-6.52
1014686,2489,0,231,0,35.00,-6.34,-6.54
1014708,2482,0,231,0,35.00,-6.27,-6.52
1014730,2332,0,229,0,35.00,-6.27,-6.50
1014752,1669,0,209,0,35.00,-6.24,-6.56
1014774,1645,0,209,0,35.00,-6.30,-6.53
1014796,731,0,183,0,35.00,-6.27,-6.50
1014818,955,0,183,0,35.00,-6.28,-6.49
1014840,1566,0,200,0,35.00,-6.23,-6.50
1014862,1829,0,201,0,35.00,-6.27,-6.49
1014884,2431,0,218,0,35.00,-6.27,-6.50
1014926,2707,0,229,0,35.00,-6.27,-6.51
1014948,2600,0,221,0,35.00,-6.30,-6.54
1014970,2027,0,215,0,35.00,-6.28,-6.50
1014992,1610,0,202,0,35.00,-6.30,-6.50
1015421,1210,0,185,0,34.06,-6.28,-6.53
1015450,2335,0,210,0,35.00,-6.28,-6.50
1015472,1507,0,197,0,35.00,-6.22,-6.51
1015494,1127,0,175,0,35.00,-6.28,-6.49
1015516,1031,0,171,0,35.00,-6.24,-6.50
1015538,1139,0,182,0,35.00,-6.25,-6.48
1015560,1507,0,189,0,35.00,-6.23,-6.50
1015582,1928,0,200,0,35.00,-6.27,-6.45
1015604,2452,0,217,0,35.00,-6.27,-6.52
1015626,2615,0,222,0,35.00,-6.29,-6.54
1015668,2611,0,221,0,35.00,-6.24,-6.50
1015690,2174,0,207,0,35.00,-6.25,-6.55
1015712,1609,0,191,0,35.00,-6.22,-6.56
1015734,1181,0,185,0,35.00,-6.32,-6.54
1015756,1149,0,175,0,35.00,-6.26,-6.50
1015778,1361,0,174,0,35.00,-6.27,-6.52
1015800,1661,0,183,0,35.00,-6.27,-6.55
1015822,2235,0,189,0,35.00,-6.27,-6.52
1015844,2501,0,205,0,35.00,-6.26,-6.51
1015866,2854,0,217,0,35.00,-6.23,-6.49
1015908,2634,0,215,0,35.00,-6.29,-6.48
1015930,2165,0,213,0,35.00,-6.32,-6.51
1015952,1613,0,191,0,35.00,-6.30,-6.50
1015974,1271,0,183,0,35.00,-6.25,-6.51
1015996,1045,0,169,0,35.00,-6.26,-6.50
1016437,1371,0,178,0,34.15,-6.26,-6.52
1016470,1671,0,180,0,35.00,-6.30,-6.53
1016492,1639,0,183,0,35.00,-6.26,-6.54
1016514,1183,0,175,0,35.00,-6.28,-6.51
1016536,1111,0,169,0,35.00,-6.25,-6.51
1016558,1417,0,174,0,35.00,-6.31,-6.50
1016580,1705,0,179,0,35.00,-6.29,-6.53
1016602,2099,0,191,0,35.00,-6.30,-6.54
1016624,2361,0,199,0,35.00,-6.31,-6.54
1016646,2525,0,215,0,35.00,-6.27,-6.52
1016668,2355,0,211,0,35.00,-6.22,-6.49
1016710,1941,0,201,0,35.00,-6.33,-6.51
1016732,1431,0,183,0,35.00,-6.27,-6.49
1016754,1067,0,171,0,35.00,-6.26,-6.50
1016776,971,0,169,0,35.00,-6.27,-6.52
1016798,1191,0,175,0,35.00,-6.25,-6.50
1016820,1774,0,185,0,35.00,-6.28,-6.52
1016842,2219,0,203,0,35.00,-6.26,-6.46
1016864,2694,0,211,0,35.00,-6.25,-6.48
1016886,2747,0,215,0,35.00,-6.30,-6.50
1016908,2413,0,215,0,35.00,-6.26,-6.48
1016930,2189,0,204,0,35.00,-6.28,-6.48
1016971,1417,0,183,0,35.00,-6.27,-6.56
1016993,1275,0,169,0,35.00,-6.28,-6.54
1017707,1032,0,167,0,34.00,-6.29,-6.50
1017733,2001,0,206,0,35.00,-6.30,-6.50
1017755,1591,0,186,0,35.00,-6.31,-6.50
1017777,1719,0,189,0,35.00,-6.30,-6.49
1017799,1635,0,196,0,35.00,-6.28,-6.53
1017821,1837,0,203,0,35.00,-6.26,-6.50
1017843,1934,0,207,0,35.00,-6.29,-6.51
1017865,1879,0,211,0,35.00,-6.26,-6.52
1017887,1663,0,207,0,35.00,-6.29,-6.46
1017909,1691,0,212,0,35.00,-6.30,-6.51
1017931,1681,0,213,0,35.00,-6.26,-6.52
1017973,1588,0,201,0,35.00,-6.26,-6.50
1017995,1609,0,215,0,35.00,-6.27,-6.53
1018723,1821,0,218,0,34.16,-6.29,-6.48
1018755,2148,0,160,0,35.00,-6.23,-6.53
1018777,2158,0,183,0,35.00,-6.23,-6.48
1018799,1661,0,179,0,35.00,-6.28,-6.51
1018821,1379,0,181,0,35.00,-6.26,-6.54
1018843,1516,0,183,0,35.00,-6.26,-6.52
1018865,1423,0,181,0,35.00,-6.27,-6.48
1018887,1492,0,179,0,35.00,-6.28,-6.52
1018909,2183,0,185,0,35.00,-6.30,-6.55
1018931,2446,0,171,0,35.00,-6.27,-6.53
1018953,2381,0,171,0,35.00,-6.27,-6.49
1018996,2280,0,173,0,35.00,-6.25,-6.57
1019739,1847,0,183,0,34.48,-6.28,-6.51
1019777,1811,0,191,0,35.00,-6.23,-6.48
1019799,1869,0,201,0,35.00,-6.25,-6.48
1019821,2036,0,183,0,35.00,-6.26,-6.51
1019843,2057,0,178,0,35.00,-6.29,-6.52
1019865,1903,0,183,0,35.00,-6.27,-6.52
1019887,1813,0,183,0,35.00,-6.27,-6.49
1019909,1738,0,179,0,35.00,-6.30,-6.53
1019931,1861,0,183,0,35.00,-6.28,-6.51
1019953,1964,0,189,0,35.00,-6.30,-6.54
1019975,2208,0,190,0,35.00,-6.23,-6.55
1019997,2060,0,199,0,35.00,-6.23,-6.49
1020038,1845,0,202,0,35.00,-6.26,-6.52
1020060,2009,0,199,0,35.00,-6.25,-6.51
1020082,1499,0,198,0,35.00,-6.28,-6.59
1020104,1818,0,187,0,35.00,-6.27,-6.52
1020126,1641,0,187,0,35.00,-6.27,-6.48
1020148,1767,0,181,0,35.00,-6.28,-6.48
1020170,1997,0,175,0,35.00,-6.22,-6.47
1020192,2425,0,171,0,35.00,-6.21,-6.53
1020214,2463,0,153,0,35.00,-6.28,-6.56
1020236,3017,0,147,0,35.00,-6.30,-6.55
1020278,2949,0,135,0,35.00,-6.26,-6.56
1020300,1495,0,162,0,35.00,-6.23,-6.52
1020322,1247,0,185,0,35.00,-6.26,-6.55
1020344,1299,0,178,0,35.00,-6.22,-6.52
1020366,1529,0,185,0,35.00,-6.27,-6.53
1020388,1723,0,179,0,35.00,-6.25,-6.51
1020410,1911,0,159,0,35.00,-6.28,-6.52
1020432,1769,0,167,0,35.00,-6.25,-6.50
1020454,1979,0,174,0,35.00,-6.28,-6.48
1020476,2173,0,171,0,35.00,-6.25,-6.53
1020498,2075,0,165,0,35.00,-6.30,-6.54
1020539,1948,0,160,0,35.00,-6.28,-6.48
1020561,1815,0,185,0,35.00,-6.21,-6.51
1020583,1541,0,184,0,35.00,-6.27,-6.48
1020605,1705,0,187,0,35.00,-6.26,-6.51
1020627,1611,0,182,0,35.00,-6.29,-6.53
1020649,1752,0,189,0,35.00,-6.29,-6.52
1020671,1735,0,170,0,35.00,-6.25,-6.54
1020693,1736,0,172,0,35.00,-6.28,-6.53
1020715,1671,0,175,0,35.00,-6.27,-6.45
1020737,2105,0,221,0,35.00,-6.30,-6.61
1020780,1927,0,197,0,35.00,-6.26,-6.52
1020802,1993,0,159,0,35.00,-6.29,-6.52
1020824,2060,0,155,0,35.00,-6.27,-6.53
1020846,1909,0,151,0,35.00,-6.28,-6.50
1020868,2315,0,157,0,35.00,-6.23,-6.52
1020890,2345,0,147,0,35.00,-6.27,-6.53
1020912,2407,0,149,0,35.00,-6.29,-6.53
1020934,2475,0,153,0,35.00,-6.33,-6.55
1020956,2483,0,151,0,35.00,-6.30,-6.54
1020978,2456,0,157,0,35.00,-6.25,-6.51
1021020,2539,0,156,0,35.00,-6.27,-6.52
1021042,2628,0,152,0,35.00,-6.23,-6.52
1021064,2424,0,151,0,35.00,-6.30,-6.51
1021086,2391,0,147,0,35.00,-6.18,-6.50
1021108,3775,0,152,0,35.00,-6.31,-6.53
1021130,2611,0,123,0,35.00,-6.27,-6.49
1021152,1912,0,125,0,35.00,-6.30,-6.56
1021174,4043,0,151,0,35.00,-6.30,-6.53
1021196,4095,0,75,0,35.00,-6.25,-6.49
1021218,2535,0,79,0,35.00,-6.28,-6.55
1021261,2411,0,107,0,35.00,-6.28,-6.50
1021283,1289,0,127,0,35.00,-6.24,-6.54
1021305,491,0,159,0,35.00,-6.26,-6.49
1021327,421,0,180,0,35.00,-6.26,-6.52
1021349,229,0,181,0,35.00,-6.25,-6.54
1021371,317,0,176,0,35.00,-6.27,-6.49
1021393,214,0,175,0,35.00,-6.24,-6.49
1021415,357,0,173,0,35.00,-6.26,-6.50
1021437,505,0,169,0,35.00,-6.29,-6.56
1021459,693,0,187,0,35.00,-6.29,-6.49
1021501,936,0,185,0,35.00,-6.29,-6.50
1021523,1287,0,198,0,35.00,-6.25,-6.53
1021545,1363,0,200,0,35.00,-6.27,-6.52
1021567,1404,0,201,0,35.00,-6.26,-6.54
1021589,1223,0,199,0,35.00,-6.30,-6.50
1021611,1079,0,187,0,35.00,-6.24,-6.53
1021633,1013,0,183,0,35.00,-6.31,-6.53
1021655,1107,0,183,0,35.00,-6.24,-6.53
1021677,1289,0,179,0,35.00,-6.26,-6.50
1021699,1566,0,183,0,35.00,-6.26,-6.55
1021721,1854,0,204,0,35.00,-6.23,-6.52
1021762,2099,0,204,0,35.00,-6.27,-6.51
1021784,2186,0,202,0,35.00,-6.27,-6.57
1021806,2120,0,204,0,35.00,-6.29,-6.52
1021828,1917,0,211,0,35.00,-6.30,-6.52
1021850,1659,0,199,0,35.00,-6.30,-6.55
1021872,1419,0,180,0,35.00,-6.27,-6.54
1021894,1443,0,184,0,35.00,-6.29,-6.54
1021916,1685,0,191,0,35.00,-6.20,-6.52
1021938,1897,0,183,0,35.00,-6.28,-6.52
1021960,2065,0,191,0,35.00,-6.25,-6.50
1022533,2387,0,211,0,34.15,-6.30,-6.49
1022564,1615,0,185,0,35.00,-6.27,-6.47
1022586,2233,0,202,0,35.00,-6.27,-6.53
1022608,1991,0,199,0,35.00,-6.23,-6.52
1022630,1636,0,186,0,35.00,-6.22,-6.49
1022652,1426,0,181,0,35.00,-6.22,-6.51
1022674,1477,0,179,0,35.00,-6.28,-6.53
1022696,1652,0,179,0,35.00,-6.26,-6.53
1022718,1917,0,181,0,35.00,-6.26,-6.50
1022740,2236,0,180,0,35.00,-6.26,-6.51
1022762,2380,0,190,0,35.00,-6.24,-6.56
1022804,2387,0,199,0,35.00,-6.26,-6.48
1022826,2227,0,191,0,35.00,-6.31,-6.51
1022848,2037,0,197,0,35.00,-6.27,-6.53
1022870,1527,0,178,0,35.00,-6.30,-6.54
1022892,1508,0,177,0,35.00,-6.25,-6.52
1022914,1453,0,175,0,35.00,-6.23,-6.53
1022936,1590,0,173,0,35.00,-6.29,-6.51
1022958,1871,0,178,0,35.00,-6.25,-6.51
1022980,2168,0,189,0,35.00,-6.32,-6.51
1023550,2428,0,202,0,33.63,-6.25,-6.54
1023586,1451,0,171,0,35.00,-6.28,-6.51
1023608,1863,0,181,0,35.00,-6.27,-6.52
1023630,1548,0,172,0,35.00,-6.26,-6.50
1023652,1380,0,171,0,35.00,-6.27,-6.51
1023674,1421,0,160,0,35.00,-6.25,-6.51
1023696,1605,0,159,0,35.00,-6.22,-6.50
1023718,1850,0,172,0,35.00,-6.26,-6.55
1023740,2029,0,175,0,35.00,-6.29,-6.49
1023762,2237,0,179,0,35.00,-6.30,-6.52
1023784,2235,0,185,0,35.00,-6.27,-6.50
1023826,2143,0,190,0,35.00,-6.26,-6.52
1023848,1911,0,185,0,35.00,-6.26,-6.52
1023870,1591,0,173,0,35.00,-6.29,-6.52
1023892,1531,0,170,0,35.00,-6.27,-6.51
1023914,1528,0,165,0,35.00,-6.25,-6.50
1023936,1704,0,171,0,35.00,-6.28,-6.51
1023958,1944,0,169,0,35.00,-6.27,-6.53
1023980,2031,0,173,0,35.00,-6.28,-6.56
1024566,2166,0,183,0,33.56,-6.29,-6.52
1024608,1901,0,181,0,35.00,-6.23,-6.52
1024630,1839,0,171,0,35.00,-6.30,-6.47
1024652,1751,0,165,0,35.00,-6.27,-6.54
1024674,1788,0,171,0,35.00,-6.27,-6.54
1024696,1951,0,171,0,35.00,-6.30,-6.50
1024718,1949,0,167,0,35.00,-6.30,-6.50
1024740,2013,0,183,0,35.00,-6.29,-6.52
1024762,2019,0,182,0,35.00,-6.28,-6.52
1024784,2003,0,177,0,35.00,-6.26,-6.51
1024806,1927,0,183,0,35.00,-6.27,-6.56
1024828,1823,0,175,0,35.00,-6.26,-6.52
1024869,1755,0,179,0,35.00,-6.28,-6.48
1024891,1767,0,171,0,35.00,-6.29,-6.53
1024913,1752,0,167,0,35.00,-6.26,-6.56
1024935,1781,0,170,0,35.00,-6.24,-6.52
1024957,1958,0,170,0,35.00,-6.29,-6.49
1024979,2040,0,169,0,35.00,-6.26,-6.53
1025582,2134,0,181,0,33.80,-6.30,-6.51
1025613,1277,0,245,0,35.00,-6.28,-6.51
1025635,1627,0,210,0,35.00,-6.28,-6.50
1025657,825,0,216,0,35.00,-6.27,-6.50
1025679,1765,0,223,0,35.00,-6.27,-6.53
1025701,3993,0,220,0,35.00,-6.27,-6.53
1025723,2925,0,221,0,35.00,-6.33,-6.50
1025745,2707,0,207,0,35.00,-6.26,-6.48
1025767,2863,0,211,0,35.00,-6.28,-6.56
1025789,3819,0,221,0,35.00,-6.33,-6.48
1025831,2822,0,171,0,35.00,-6.29,-6.50
1025853,0,0,141,0,35.00,-6.32,-6.49
1025875,0,0,165,0,35.00,-6.23,-6.53
1025897,0,0,184,0,35.00,-6.26,-6.53
1025919,0,0,189,0,35.00,-6.18,-6.56
1025941,0,0,178,0,35.00,-6.28,-6.51
1025963,1944,0,217,0,35.00,-6.35,-6.52
1025985,2385,0,253,0,35.00,-6.31,-6.62
1026347,2725,0,281,0,33.97,-6.24,-6.61
1026375,1685,0,91,0,35.00,-5.96,-6.59
1026397,0,0,167,0,35.00,-6.23,-6.47
1026419,2987,0,243,0,35.00,-6.33,-6.49
1026441,2427,0,215,0,35.00,-6.31,-6.40
1026463,2315,0,185,0,35.00,-6.24,-6.47
1026485,1971,0,167,0,35.00,-6.16,-6.54
1026507,1590,0,172,0,35.00,-6.27,-6.48
1026529,1751,0,183,0,35.00,-6.24,-6.51
1026551,1899,0,201,0,35.00,-6.23,-6.49
1026593,2359,0,207,0,35.00,-6.26,-6.43
1026615,1683,0,154,0,35.00,-6.24,-6.53
1026637,1212,0,163,0,35.00,-6.18,-6.48
1026659,0,0,156,0,35.00,-6.22,-6.52
1026681,1049,0,181,0,35.00,-6.19,-6.48
1026703,307,0,167,0,35.00,-6.26,-6.53
1026725,663,0,171,0,35.00,-6.16,-6.50
1026747,569,0,164,0,35.00,-6.23,-6.46
1026769,0,0,149,0,35.00,-6.26,-6.44
1026791,1881,0,205,0,35.00,-6.23,-6.51
1026833,4093,0,228,0,35.00,-6.22,-6.47
1026855,1124,0,179,0,35.00,-6.24,-6.58
1026877,1789,0,201,0,35.00,-6.16,-6.66
1026899,1571,0,201,0,35.00,-6.12,-6.28
1026921,0,0,159,0,35.00,-6.26,-6.63
1026943,1017,0,183,0,35.00,-6.22,-6.63
1026965,2077,0,204,0,35.00,-6.02,-6.35
1026987,1321,0,189,0,35.00,-6.22,-6.40
1027360,1652,0,181,0,34.11,-6.33,-6.57
1027394,1883,0,117,0,35.00,-6.28,-6.51
1027416,0,0,115,0,35.00,-6.10,-6.57
1027438,0,0,127,0,35.00,-6.18,-6.57
1027460,0,0,137,0,35.00,-6.24,-6.50
1027482,0,0,153,0,35.00,-6.23,-6.55
1027504,0,0,165,0,35.00,-6.21,-6.59
1027526,0,0,183,0,35.00,-6.15,-6.56
1027548,0,0,221,0,35.00,-6.27,-6.58
1027570,0,0,237,0,35.00,-6.00,-6.55
1027592,0,0,213,0,35.00,-6.19,-6.60
1027614,0,0,203,0,35.00,-6.23,-6.57
1027655,175,0,184,0,35.00,-6.13,-6.54
1027677,1829,0,185,0,35.00,-6.16,-6.58
1027699,3519,0,192,0,35.00,-6.15,-6.52
1027721,4095,0,169,0,35.00,-6.23,-6.69
1027743,4095,0,175,0,35.00,-6.15,-6.57
1027765,4095,0,141,0,35.00,-6.28,-6.69
1027787,4095,0,152,0,35.00,-6.29,-6.61
1027809,3404,0,135,0,35.00,-6.18,-6.64
1027831,2438,0,91,0,35.00,-6.15,-6.58
1027853,1930,0,121,0,35.00,-6.25,-6.56
1027896,1035,0,127,0,35.00,-6.20,-6.57
1027918,0,0,168,0,35.00,-6.22,-6.55
1027940,0,0,176,0,35.00,-6.21,-6.52
1027962,0,0,187,0,35.00,-6.24,-6.61
1027984,0,0,192,0,35.00,-6.18,-6.59
1028376,867,0,218,0,33.85,-6.23,-6.61
1028417,0,0,390,0,35.00,-6.24,-6.57
1028439,0,0,601,0,35.00,-6.18,-6.53
1028461,371,0,589,0,35.00,-6.23,-6.53
1028483,4095,0,525,0,35.00,-6.21,-6.52
1028505,4095,0,377,0,35.00,-6.20,-6.56
1028527,4095,0,293,0,35.00,-6.16,-6.61
1028549,4095,0,227,0,35.00,-6.20,-6.57
1028571,4095,0,163,0,35.00,-6.22,-6.60
1028593,4095,0,116,0,35.00,-6.22,-6.55
1028615,4095,0,105,0,35.00,-6.19,-6.57
1028657,4095,0,107,0,35.00,-6.20,-6.57
1028679,4095,0,118,0,35.00,-6.23,-6.56
1028701,4095,0,141,0,35.00,-6.15,-6.55
1028723,4095,0,152,0,35.00,-6.25,-6.57
1028745,3515,0,181,0,35.00,-6.21,-6.58
1028767,1319,0,157,0,35.00,-6.23,-6.54
1028789,1051,0,155,0,35.00,-6.25,-6.60
1028811,1213,0,143,0,35.00,-6.19,-6.55
1028833,1213,0,137,0,35.00,-6.23,-6.56
1028855,1583,0,135,0,35.00,-6.19,-6.49
1028877,2197,0,155,0,35.00,-6.25,-6.59
1028918,2797,0,173,0,35.00,-6.19,-6.56
1028940,2181,0,141,0,35.00,-6.19,-6.57
1028962,1673,0,143,0,35.00,-6.21,-6.50
1028984,1559,0,152,0,35.00,-6.17,-6.56
1029392,2357,0,179,0,34.21,-6.24,-6.57
1029420,584,0,141,0,35.00,-6.24,-6.59
1029442,2551,0,179,0,35.00,-6.23,-6.61
1029464,2329,0,178,0,35.00,-6.19,-6.59
1029486,2106,0,174,0,35.00,-6.26,-6.54
1029508,1518,0,165,0,35.00,-6.24,-6.52
1029530,1142,0,164,0,35.00,-6.25,-6.58
1029552,857,0,151,0,35.00,-6.23,-6.56
1029574,1119,0,143,0,35.00,-6.26,-6.58
1029596,1433,0,149,0,35.00,-6.19,-6.52
1029618,2005,0,162,0,35.00,-6.22,-6.58
1029660,2580,0,171,0,35.00,-6.25,-6.58
1029682,2949,0,180,0,35.00,-6.22,-6.57
1029704,2903,0,199,0,35.00,-6.28,-6.59
1029726,2118,0,205,0,35.00,-6.27,-6.52
1029748,1637,0,189,0,35.00,-6.22,-6.54
1029770,919,0,153,0,35.00,-6.20,-6.57
1029792,638,0,141,0,35.00,-6.21,-6.60
1029814,845,0,137,0,35.00,-6.22,-6.55
1029836,1573,0,153,0,35.00,-6.20,-6.61
1029858,2215,0,155,0,35.00,-6.22,-6.56
1029900,2719,0,173,0,35.00,-6.22,-6.57
1029922,2892,0,187,0,35.00,-6.22,-6.60
1029944,2683,0,185,0,35.00,-6.22,-6.56
1029966,2157,0,188,0,35.00,-6.21,-6.61
1029988,1427,0,160,0,35.00,-6.25,-6.50
1030409,1003,0,159,0,34.27,-6.21,-6.58
1030441,956,0,155,0,35.00,-6.22,-6.57
1030463,3127,0,187,0,35.00,-6.16,-6.59
1030485,2479,0,197,0,35.00,-6.21,-6.56
1030507,1497,0,185,0,35.00,-6.21,-6.58
1030529,919,0,165,0,35.00,-6.15,-6.57
1030551,680,0,156,0,35.00,-6.20,-6.57
1030573,883,0,155,0,35.00,-6.23,-6.56
1030595,1225,0,149,0,35.00,-6.21,-6.56
1030617,1839,0,173,0,35.00,-6.21,-6.58
1030639,2239,0,173,0,35.00,-6.21,-6.57
1030661,2621,0,187,0,35.00,-6.18,-6.58
1030702,2773,0,199,0,35.00,-6.22,-6.50
1030724,2780,0,211,0,35.00,-6.23,-6.63
1030746,2221,0,211,0,35.00,-6.18,-6.59
1030768,1386,0,185,0,35.00,-6.19,-6.54
1030790,910,0,168,0,35.00,-6.20,-6.57
1030812,591,0,150,0,35.00,-6.22,-6.55
1030834,1064,0,155,0,35.00,-6.22,-6.59
1030856,1497,0,163,0,35.00,-6.26,-6.59
1030878,2513,0,171,0,35.00,-6.20,-6.51
1030900,3111,0,187,0,35.00,-6.23,-6.57
1030943,3212,0,204,0,35.00,-6.19,-6.56
1030965,2616,0,204,0,35.00,-6.26,-6.58
1030987,1783,0,203,0,35.00,-6.23,-6.60
1031424,1291,0,179,0,33.94,-6.22,-6.60
1031464,1998,0,188,0,35.00,-6.22,-6.64
1031486,2143,0,204,0,35.00,-6.18,-6.64
1031508,1225,0,181,0,35.00,-6.21,-6.56
1031530,892,0,163,0,35.00,-6.22,-6.56
1031552,1117,0,146,0,35.00,-6.26,-6.57
1031574,1404,0,155,0,35.00,-6.18,-6.59
1031596,1605,0,168,0,35.00,-6.25,-6.59
1031618,2091,0,181,0,35.00,-6.24,-6.60
1031640,2413,0,189,0,35.00,-6.19,-6.55
1031662,2719,0,189,0,35.00,-6.21,-6.58
1031704,2514,0,191,0,35.00,-6.24,-6.56
1031726,2194,0,183,0,35.00,-6.25,-6.61
1031748,1545,0,163,0,35.00,-6.24,-6.56
1031770,965,0,154,0,35.00,-6.21,-6.55
1031792,907,0,153,0,35.00,-6.21,-6.56
1031814,1175,0,147,0,35.00,-6.20,-6.58
1031836,1721,0,147,0,35.00,-6.26,-6.57
1031858,2605,0,146,0,35.00,-6.20,-6.53
1031880,3132,0,167,0,35.00,-6.24,-6.55
1031902,3292,0,172,0,35.00,-6.21,-6.56
1031924,3111,0,189,0,35.00,-6.21,-6.57
1031965,2407,0,199,0,35.00,-6.24,-6.58
1031987,1823,0,191,0,35.00,-6.23,-6.55
1032695,969,0,167,0,34.20,-6.18,-6.55
1032726,1910,0,175,0,35.00,-6.17,-6.58
1032748,984,0,199,0,35.00,-6.21,-6.57
1032770,627,0,180,0,35.00,-6.24,-6.57
1032792,567,0,179,0,35.00,-6.19,-6.60
1032814,1117,0,167,0,35.00,-6.20,-6.62
1032836,1821,0,173,0,35.00,-6.20,-6.60
1032858,2423,0,174,0,35.00,-6.17,-6.57
1032880,2952,0,187,0,35.00,-6.14,-6.60
1032902,2903,0,203,0,35.00,-6.16,-6.60
1032924,2491,0,211,0,35.00,-6.19,-6.60
1032946,1943,0,205,0,35.00,-6.19,-6.58
1032987,1429,0,186,0,35.00,-6.19,-6.59
1033711,1015,0,181,0,33.84,-6.15,-6.60
1033749,879,0,157,0,35.00,-6.21,-6.65
1033771,824,0,153,0,35.00,-6.17,-6.62
1033793,1081,0,147,0,35.00,-6.19,-6.61
1033815,1444,0,143,0,35.00,-6.21,-6.62
1033837,1884,0,147,0,35.00,-6.17,-6.59
1033859,2591,0,165,0,35.00,-6.20,-6.57
1033881,2975,0,185,0,35.00,-6.23,-6.61
1033903,2937,0,189,0,35.00,-6.21,-6.62
1033925,2389,0,204,0,35.00,-6.23,-6.61
1033947,1677,0,183,0,35.00,-6.23,-6.60
1033989,1078,0,176,0,35.00,-6.18,-6.55
1034727,895,0,155,0,33.99,-6.18,-6.62
1034752,999,0,165,0,35.00,-6.20,-6.62
1034774,1267,0,146,0,35.00,-6.16,-6.59
1034796,1831,0,155,0,35.00,-6.15,-6.58
1034818,2297,0,155,0,35.00,-6.17,-6.59
1034840,2578,0,173,0,35.00,-6.16,-6.61
1034862,2717,0,157,0,35.00,-6.20,-6.57
1034884,2404,0,136,0,35.00,-6.18,-6.59
1034906,1947,0,73,0,35.00,-6.23,-6.56
1034928,1451,0,47,0,35.00,-6.19,-6.59
1034950,1309,0,25,0,35.00,-6.19,-6.55
1034992,1323,0,22,0,35.00,-6.20,-6.62
1035743,1495,0,23,0,34.26,-6.21,-6.60
1035773,2248,0,173,0,35.00,-6.20,-6.56
1035795,1710,0,149,0,35.00,-6.21,-6.58
1035817,2233,0,164,0,35.00,-6.23,-6.56
1035839,2935,0,187,0,35.00,-6.17,-6.59
1035861,3076,0,192,0,35.00,-6.24,-6.59
1035883,2637,0,189,0,35.00,-6.20,-6.60
1035905,2173,0,181,0,35.00,-6.21,-6.59
1035927,1447,0,173,0,35.00,-6.21,-6.58
1035949,926,0,166,0,35.00,-6.21,-6.63
1035971,761,0,156,0,35.00,-6.24,-6.59
1035993,1054,0,160,0,35.00,-6.21,-6.58
1036034,1636,0,177,0,35.00,-6.22,-6.56
1036056,1932,0,181,0,35.00,-6.20,-6.57
1036078,2428,0,199,0,35.00,-6.22,-6.56
1036100,2897,0,215,0,35.00,-6.23,-6.57
1036122,2907,0,221,0,35.00,-6.21,-6.58
1036144,2615,0,217,0,35.00,-6.21,-6.55
1036166,1901,0,199,0,35.00,-6.20,-6.61
1036188,1075,0,183,0,35.00,-6.27,-6.60
1036210,805,0,167,0,35.00,-6.20,-6.54
1036232,891,0,157,0,35.00,-6.19,-6.59
1036274,1176,0,143,0,35.00,-6.23,-6.59
1036296,1941,0,149,0,35.00,-6.21,-6.55
1036318,2488,0,163,0,35.00,-6.22,-6.60
1036340,3147,0,175,0,35.00,-6.20,-6.61
1036362,2879,0,179,0,35.00,-6.21,-6.59
1036384,2591,0,183,0,35.00,-6.22,-6.56
1036406,1862,0,159,0,35.00,-6.24,-6.57
1036428,1141,0,147,0,35.00,-6.19,-6.58
1036450,827,0,135,0,35.00,-6.21,-6.58
1036472,941,0,135,0,35.00,-6.17,-6.57
1036494,1673,0,147,0,35.00,-6.22,-6.56
1036535,1951,0,151,0,35.00,-6.20,-6.55
1036557,2381,0,167,0,35.00,-6.21,-6.60
1036579,2541,0,169,0,35.00,-6.18,-6.62
1036601,3223,0,199,0,35.00,-6.23,-6.58
1036623,2779,0,189,0,35.00,-6.19,-6.53
1036645,2314,0,185,0,35.00,-6.18,-6.55
1036667,1500,0,169,0,35.00,-6.16,-6.53
1036689,902,0,160,0,35.00,-6.23,-6.57
1036711,459,0,139,0,35.00,-6.19,-6.61
1036733,867,0,149,0,35.00,-6.22,-6.61
1036775,1463,0,169,0,35.00,-6.17,-6.57
1036797,2141,0,172,0,35.00,-6.11,-6.58
1036819,2703,0,180,0,35.00,-6.21,-6.60
1036841,2808,0,189,0,35.00,-6.21,-6.57
1036863,2791,0,186,0,35.00,-6.24,-6.54
1036885,1965,0,178,0,35.00,-6.24,-6.57
1036907,1111,0,159,0,35.00,-6.19,-6.61
1036929,715,0,160,0,35.00,-6.20,-6.56
1036951,745,0,155,0,35.00,-6.19,-6.55
1036973,1388,0,157,0,35.00,-6.19,-6.60
1036995,1839,0,165,0,35.00,-6.21,-6.58
1037036,2299,0,191,0,35.00,-6.24,-6.57
1037058,2613,0,184,0,35.00,-6.20,-6.54
1037080,2961,0,203,0,35.00,-6.21,-6.59
1037102,2983,0,202,0,35.00,-6.24,-6.60
1037124,2537,0,201,0,35.00,-6.24,-6.56
1037146,1749,0,179,0,35.00,-6.19,-6.60
1037168,1001,0,165,0,35.00,-6.20,-6.57
1037190,699,0,154,0,35.00,-6.25,-6.57
1037212,956,0,157,0,35.00,-6.25,-6.61
1037234,1379,0,157,0,35.00,-6.24,-6.57
1037277,1957,0,174,0,35.00,-6.22,-6.59
1037299,2861,0,187,0,35.00,-6.16,-6.62
1037321,2922,0,189,0,35.00,-6.22,-6.58
1037343,2683,0,189,0,35.00,-6.22,-6.58
1037365,2267,0,185,0,35.00,-6.19,-6.57
1037387,1603,0,173,0,35.00,-6.22,-6.62
1037409,1101,0,166,0,35.00,-6.24,-6.59
1037431,1015,0,167,0,35.00,-6.21,-6.54
1037453,1302,0,180,0,35.00,-6.22,-6.60
1037475,1626,0,186,0,35.00,-6.22,-6.57
1037517,2162,0,205,0,35.00,-6.22,-6.59
1037539,2696,0,246,0,35.00,-6.21,-6.59
1037561,2873,0,279,0,35.00,-6.18,-6.56
1037583,2569,0,315,0,35.00,-6.23,-6.62
1037605,1959,0,338,0,35.00,-6.17,-6.57
1037627,1243,0,352,0,35.00,-6.19,-6.57
1037649,755,0,356,0,35.00,-6.18,-6.59
1037671,655,0,318,0,35.00,-6.22,-6.58
1037693,955,0,269,0,35.00,-6.22,-6.54
1037715,1453,0,233,0,35.00,-6.16,-6.58
1037758,2323,0,233,0,35.00,-6.22,-6.60
1037780,2803,0,252,0,35.00,-6.20,-6.60
1037802,2941,0,275,0,35.00,-6.19,-6.61
1037824,2507,0,303,0,35.00,-6.25,-6.61
1037846,1737,0,300,0,35.00,-6.16,-6.54
1037868,1338,0,271,0,35.00,-6.16,-6.56
1037890,1007,0,247,0,35.00,-6.18,-6.57
1037912,1039,0,263,0,35.00,-6.18,-6.59
1037934,1444,0,253,0,35.00,-6.22,-6.57
1037956,2217,0,286,0,35.00,-6.22,-6.62
1037998,2803,0,299,0,35.00,-6.21,-6.60
1038020,3345,0,317,0,35.00,-6.24,-6.56
1038042,3044,0,327,0,35.00,-6.22,-6.56
1038064,2611,0,329,0,35.00,-6.20,-6.57
1038086,1883,0,277,0,35.00,-6.24,-6.58
1038108,886,0,249,0,35.00,-6.18,-6.58
1038130,675,0,227,0,35.00,-6.22,-6.60
1038152,783,0,215,0,35.00,-6.22,-6.61
1038174,1082,0,199,0,35.00,-6.22,-6.57
1038196,2007,0,211,0,35.00,-6.24,-6.60
1038218,2521,0,221,0,35.00,-6.19,-6.58
1038259,2939,0,237,0,35.00,-6.18,-6.60
1038281,3291,0,229,0,35.00,-6.19,-6.57
1038303,2811,0,218,0,35.00,-6.20,-6.59
1038325,2173,0,231,0,35.00,-6.20,-6.59
1038347,1292,0,210,0,35.00,-6.20,-6.58
1038369,668,0,189,0,35.00,-6.22,-6.60
1038391,567,0,175,0,35.00,-6.21,-6.60
1038413,857,0,163,0,35.00,-6.22,-6.58
1038435,1593,0,161,0,35.00,-6.21,-6.59
1038457,2235,0,175,0,35.00,-6.26,-6.61
1038499,2616,0,175,0,35.00,-6.18,-6.59
1038521,3005,0,201,0,35.00,-6.19,-6.59
1038543,2777,0,209,0,35.00,-6.21,-6.55
1038565,2251,0,210,0,35.00,-6.24,-6.56
1038587,1477,0,177,0,35.00,-6.19,-6.57
1038609,1013,0,173,0,35.00,-6.20,-6.61
1038631,799,0,157,0,35.00,-6.21,-6.59
1038653,1074,0,157,0,35.00,-6.21,-6.59
1038675,1785,0,163,0,35.00,-6.19,-6.56
1038697,2207,0,159,0,35.00,-6.23,-6.56
1038719,2616,0,179,0,35.00,-6.21,-6.63
1038760,2921,0,189,0,35.00,-6.18,-6.62
1038782,2941,0,199,0,35.00,-6.20,-6.58
1038804,2517,0,213,0,35.00,-6.21,-6.61
1038826,1783,0,203,0,35.00,-6.17,-6.62
1038848,1021,0,174,0,35.00,-6.22,-6.53
1038870,691,0,158,0,35.00,-6.20,-6.56
1038892,757,0,163,0,35.00,-6.22,-6.63
1038914,1303,0,149,0,35.00,-6.22,-6.60
1038936,1816,0,157,0,35.00,-6.17,-6.59
1038958,2459,0,163,0,35.00,-6.20,-6.60
1039553,2811,0,183,0,34.07,-6.19,-6.60
1039583,1735,0,205,0,35.00,-6.19,-6.59
1039605,1967,0,263,0,35.00,-6.17,-6.62
1039627,1581,0,234,0,35.00,-6.17,-6.62
1039649,1267,0,205,0,35.00,-6.17,-6.65
1039671,1193,0,181,0,35.00,-6.21,-6.60
1039693,1381,0,167,0,35.00,-6.16,-6.61
1039715,1875,0,163,0,35.00,-6.17,-6.59
1039737,2620,0,165,0,35.00,-6.15,-6.55
1039759,3195,0,165,0,35.00,-6.15,-6.59
1039781,3316,0,173,0,35.00,-6.19,-6.63
1039822,3702,0,174,0,35.00,-6.32,-6.66
1039844,2951,0,188,0,35.00,-6.16,-6.58
1039866,2856,0,165,0,35.00,-6.17,-6.56
1039888,2127,0,154,0,35.00,-6.28,-6.69
1039910,1637,0,136,0,35.00,-6.14,-6.57
1039932,1510,0,123,0,35.00,-6.14,-6.61
1039954,1651,0,127,0,35.00,-6.05,-6.65
1039976,1967,0,167,0,35.00,-6.18,-6.61
1039998,2415,0,169,0,35.00,-6.16,-6.63
1040020,2844,0,184,0,35.00,-6.18,-6.66
1040042,2676,0,186,0,35.00,-6.16,-6.64
1040083,2137,0,188,0,35.00,-6.17,-6.63
1040105,1756,0,167,0,35.00,-6.14,-6.63
1040127,901,0,155,0,35.00,-6.18,-6.62
1040149,541,0,143,0,35.00,-6.13,-6.65
1040171,505,0,141,0,35.00,-6.16,-6.61
1040193,923,0,146,0,35.00,-6.14,-6.63
1040215,1497,0,146,0,35.00,-6.19,-6.62
1040237,2116,0,159,0,35.00,-6.17,-6.64
1040259,2692,0,187,0,35.00,-6.17,-6.63
1040281,3003,0,205,0,35.00,-6.18,-6.59
1040324,2840,0,219,0,35.00,-6.16,-6.61
1040346,1451,0,201,0,35.00,-6.15,-6.64
1040368,815,0,183,0,35.00,-6.18,-6.66
1040390,671,0,180,0,35.00,-6.14,-6.63
1040412,900,0,171,0,35.00,-6.19,-6.65
1040434,1321,0,160,0,35.00,-6.21,-6.63
1040456,1903,0,164,0,35.00,-6.16,-6.63
1040478,2440,0,181,0,35.00,-6.21,-6.64
1040500,2680,0,191,0,35.00,-6.18,-6.64
1040522,2845,0,213,0,35.00,-6.17,-6.62
1040564,2489,0,216,0,35.00,-6.20,-6.61
1040586,1832,0,203,0,35.00,-6.16,-6.63
1040608,1059,0,187,0,35.00,-6.21,-6.59
1040630,766,0,167,0,35.00,-6.21,-6.62
1040652,776,0,165,0,35.00,-6.16,-6.63
1040674,1293,0,153,0,35.00,-6.15,-6.61
1040696,1981,0,181,0,35.00,-6.21,-6.62
1040718,2221,0,167,0,35.00,-6.18,-6.64
1040740,2883,0,199,0,35.00,-6.16,-6.62
1040762,2856,0,197,0,35.00,-6.16,-6.64
1040805,2483,0,199,0,35.00,-6.17,-6.66
1040827,1480,0,181,0,35.00,-6.17,-6.62
1040849,1003,0,171,0,35.00,-6.21,-6.61
1040871,1083,0,169,0,35.00,-6.18,-6.62
1040893,1321,0,157,0,35.00,-6.16,-6.58
1040915,1704,0,157,0,35.00,-6.14,-6.61
1040937,2277,0,175,0,35.00,-6.16,-6.58
1040959,2643,0,178,0,35.00,-6.16,-6.64
1040981,2877,0,201,0,35.00,-6.15,-6.60
1041585,2839,0,212,0,34.27,-6.18,-6.63
1041626,1511,0,202,0,35.00,-6.17,-6.62
1041648,1161,0,175,0,35.00,-6.22,-6.63
1041670,1085,0,167,0,35.00,-6.20,-6.62
1041692,1085,0,155,0,35.00,-6.14,-6.61
1041714,1315,0,143,0,35.00,-6.14,-6.57
1041736,1892,0,157,0,35.00,-6.16,-6.64
1041758,2303,0,171,0,35.00,-6.16,-6.58
1041780,2788,0,185,0,35.00,-6.19,-6.62
1041802,3031,0,198,0,35.00,-6.16,-6.64
1041824,2540,0,204,0,35.00,-6.12,-6.61
1041846,1816,0,191,0,35.00,-6.17,-6.61
1041887,1275,0,167,0,35.00,-6.21,-6.62
1041909,1068,0,174,0,35.00,-6.18,-6.59
1041931,875,0,157,0,35.00,-6.16,-6.61
1041953,1210,0,157,0,35.00,-6.16,-6.62
1041975,1741,0,157,0,35.00,-6.20,-6.57
1041997,2259,0,165,0,35.00,-6.20,-6.59
1042601,2535,0,164,0,34.05,-6.19,-6.66
1042632,2707,0,203,0,35.00,-6.18,-6.57
1042654,1337,0,150,0,35.00,-6.17,-6.60
1042676,1838,0,167,0,35.00,-6.16,-6.61
1042698,2381,0,170,0,35.00,-6.16,-6.63
1042720,2806,0,183,0,35.00,-6.19,-6.60
1042742,2783,0,201,0,35.00,-6.18,-6.59
1042764,2444,0,203,0,35.00,-6.16,-6.59
1042786,1839,0,201,0,35.00,-6.18,-6.61
1042808,1312,0,181,0,35.00,-6.22,-6.63
1042849,1033,0,169,0,35.00,-6.18,-6.61
1042871,825,0,155,0,35.00,-6.16,-6.62
1042893,875,0,156,0,35.00,-6.16,-6.61
1042915,1139,0,147,0,35.00,-6.14,-6.59
1042937,2191,0,169,0,35.00,-6.18,-6.61
1042959,2540,0,179,0,35.00,-6.15,-6.61
1042981,2729,0,199,0,35.00,-6.15,-6.60
1043364,2761,0,201,0,34.05,-6.15,-6.61
1043392,2093,0,201,0,35.00,-6.19,-6.60
1043414,1617,0,156,0,35.00,-6.19,-6.63
1043436,2149,0,183,0,35.00,-6.16,-6.63
1043458,2581,0,182,0,35.00,-6.16,-6.62
1043480,2899,0,183,0,35.00,-6.19,-6.63
1043502,2795,0,205,0,35.00,-6.19,-6.63
1043524,2432,0,218,0,35.00,-6.23,-6.65
1043546,1766,0,203,0,35.00,-6.18,-6.59
1043568,1109,0,187,0,35.00,-6.17,-6.62
1043590,776,0,165,0,35.00,-6.16,-6.64
1043631,982,0,159,0,35.00,-6.16,-6.65
1043653,1116,0,157,0,35.00,-6.20,-6.61
1043675,1655,0,159,0,35.00,-6.13,-6.59
1043697,2351,0,175,0,35.00,-6.17,-6.61
1043719,2452,0,169,0,35.00,-6.16,-6.62
1043741,2943,0,204,0,35.00,-6.14,-6.57
1043763,2795,0,205,0,35.00,-6.17,-6.60
1043785,2175,0,205,0,35.00,-6.15,-6.63
1043807,1545,0,191,0,35.00,-6.19,-6.64
1043829,1017,0,177,0,35.00,-6.12,-6.60
1043872,879,0,165,0,35.00,-6.19,-6.60
1043894,1320,0,149,0,35.00,-6.21,-6.58
1043916,1897,0,165,0,35.00,-6.19,-6.64
1043938,2407,0,167,0,35.00,-6.17,-6.64
1043960,2761,0,178,0,35.00,-6.18,-6.64
1043982,2889,0,203,0,35.00,-6.22,-6.59
1044380,2534,0,207,0,33.93,-6.16,-6.64
1044413,2864,0,197,0,35.00,-6.21,-6.60
1044435,1683,0,176,0,35.00,-6.16,-6.60
1044457,2077,0,167,0,35.00,-6.18,-6.62
1044479,2707,0,174,0,35.00,-6.17,-6.61
1044501,2861,0,199,0,35.00,-6.19,-6.63
1044523,2701,0,203,0,35.00,-6.20,-6.61
1044545,2249,0,205,0,35.00,-6.16,-6.65
1044567,1509,0,197,0,35.00,-6.18,-6.62
1044589,1107,0,185,0,35.00,-6.15,-6.62
1044611,837,0,163,0,35.00,-6.17,-6.65
1044653,1172,0,167,0,35.00,-6.19,-6.58
1044675,1651,0,158,0,35.00,-6.15,-6.59
1044697,2279,0,174,0,35.00,-6.18,-6.66
1044719,2621,0,171,0,35.00,-6.20,-6.65
1044741,3117,0,199,0,35.00,-6.17,-6.62
1044763,2591,0,190,0,35.00,-6.17,-6.59
1044785,2207,0,207,0,35.00,-6.18,-6.65
1044807,1591,0,190,0,35.00,-6.16,-6.62
1044829,1195,0,184,0,35.00,-6.14,-6.61
1044851,953,0,165,0,35.00,-6.19,-6.61
1044873,1069,0,159,0,35.00,-6.13,-6.64
1044914,1503,0,153,0,35.00,-6.19,-6.60
1044936,1817,0,173,0,35.00,-6.15,-6.58
1044958,2322,0,179,0,35.00,-6.18,-6.59
1044980,2712,0,185,0,35.00,-6.13,-6.61
1045396,2769,0,199,0,33.92,-6.18,-6.64
1045435,2467,0,171,0,35.00,-6.21,-6.64
1045457,2259,0,175,0,35.00,-6.18,-6.63
1045479,2555,0,183,0,35.00,-6.16,-6.65
1045501,3034,0,201,0,35.00,-6.19,-6.61
1045523,2715,0,198,0,35.00,-6.19,-6.63
1045545,2365,0,211,0,35.00,-6.17,-6.63
1045567,1683,0,189,0,35.00,-6.18,-6.61
1045589,1140,0,179,0,35.00,-6.13,-6.60
1045611,990,0,157,0,35.00,-6.16,-6.62
1045633,1227,0,169,0,35.00,-6.16,-6.61
1045676,1567,0,157,0,35.00,-6.23,-6.65
1045698,2415,0,169,0,35.00,-6.20,-6.64
1045720,2804,0,183,0,35.00,-6.18,-6.59
1045742,2765,0,201,0,35.00,-6.18,-6.63
1045764,2423,0,192,0,35.00,-6.19,-6.58
1045786,1915,0,199,0,35.00,-6.16,-6.61
1045808,1305,0,182,0,35.00,-6.17,-6.63
1045830,971,0,173,0,35.00,-6.16,-6.63
1045852,903,0,167,0,35.00,-6.18,-6.64
1045874,1279,0,159,0,35.00,-6.16,-6.62
1045916,1781,0,171,0,35.00,-6.14,-6.61
1045938,2202,0,167,0,35.00,-6.17,-6.62
1045960,2645,0,181,0,35.00,-6.20,-6.62
1045982,2987,0,202,0,35.00,-6.17,-6.61
1046412,2602,0,213,0,33.94,-6.20,-6.58
1046441,1307,0,167,0,35.00,-6.17,-6.61
1046463,2781,0,200,0,35.00,-6.14,-6.63
1046485,2309,0,203,0,35.00,-6.15,-6.56
1046507,1717,0,201,0,35.00,-6.20,-6.65
1046529,1187,0,179,0,35.00,-6.24,-6.64
1046551,671,0,158,0,35.00,-6.15,-6.67
1046573,1094,0,163,0,35.00,-6.16,-6.63
1046595,1575,0,156,0,35.00,-6.20,-6.59
1046638,1972,0,168,0,35.00,-6.16,-6.62
1046660,2525,0,181,0,35.00,-6.15,-6.64
1046682,2969,0,205,0,35.00,-6.21,-6.63
1046704,2591,0,205,0,35.00,-6.14,-6.63
1046726,1997,0,203,0,35.00,-6.15,-6.65
1046748,1297,0,187,0,35.00,-6.18,-6.62
1046770,913,0,169,0,35.00,-6.19,-6.60
1046792,959,0,159,0,35.00,-6.16,-6.60
1046814,1385,0,157,0,35.00,-6.17,-6.63
1046836,1931,0,167,0,35.00,-6.16,-6.62
1046878,2412,0,169,0,35.00,-6.13,-6.60
1046900,2910,0,181,0,35.00,-6.19,-6.60
1046922,2971,0,203,0,35.00,-6.20,-6.61
1046944,2473,0,207,0,35.00,-6.16,-6.61
1046966,2012,0,201,0,35.00,-6.19,-6.60
1046988,1175,0,181,0,35.00,-6.19,-6.63
1047428,917,0,167,0,33.89,-6.17,-6.64
1047459,956,0,179,0,35.00,-6.18,-6.65
1047481,2820,0,187,0,35.00,-6.16,-6.61
1047503,2695,0,199,0,35.00,-6.20,-6.62
1047525,2333,0,200,0,35.00,-6.16,-6.62
1047547,1751,0,186,0,35.00,-6.21,-6.61
1047569,1163,0,168,0,35.00,-6.17,-6.59
1047591,971,0,143,0,35.00,-6.16,-6.59
1047613,1344,0,147,0,35.00,-6.22,-6.62
1047635,1481,0,134,0,35.00,-6.16,-6.64
1047657,2071,0,153,0,35.00,-6.22,-6.66
1047679,2664,0,163,0,35.00,-6.16,-6.60
1047720,2799,0,188,0,35.00,-6.16,-6.62
1047742,3115,0,209,0,35.00,-6.18,-6.61
1047764,2787,0,211,0,35.00,-6.22,-6.63
1047786,1909,0,203,0,35.00,-6.20,-6.62
1047808,903,0,211,0,35.00,-6.17,-6.61
1047830,295,0,211,0,35.00,-6.19,-6.62
1047852,191,0,197,0,35.00,-6.18,-6.60
1047874,575,0,181,0,35.00,-6.22,-6.59
1047896,1342,0,170,0,35.00,-6.24,-6.52
1047918,2089,0,165,0,35.00,-6.14,-6.51
1047960,2731,0,172,0,35.00,-6.16,-6.61
1047982,3337,0,214,0,35.00,-6.11,-6.61
1048698,2774,0,223,0,56.64,-6.19,-6.66
1048722,2701,0,201,0,35.00,-6.19,-6.63
1048744,2685,0,220,0,35.00,-6.21,-6.60
1048766,2118,0,211,0,35.00,-6.20,-6.56
1048788,1349,0,187,0,35.00,-6.12,-6.57
1048810,711,0,165,0,35.00,-6.21,-6.62
1048832,555,0,147,0,35.00,-6.20,-6.65
1048854,895,0,147,0,35.00,-6.21,-6.61
1048876,1437,0,153,0,35.00,-6.19,-6.63
1048898,2287,0,171,0,35.00,-6.18,-6.60
1048920,3339,0,183,0,35.00,-6.20,-6.63
1048963,4095,0,217,0,35.00,-6.15,-6.60
1048985,3323,0,228,0,35.00,-6.19,-6.61
1049715,2003,0,223,0,34.06,-6.17,-6.59
1049744,2083,0,199,0,35.00,-6.19,-6.61
1049766,1970,0,206,0,35.00,-6.23,-6.62
1049788,1572,0,203,0,35.00,-6.19,-6.61
1049810,1114,0,181,0,35.00,-6.15,-6.61
1049832,1048,0,173,0,35.00,-6.20,-6.60
1049854,1305,0,169,0,35.00,-6.24,-6.63
1049876,1823,0,173,0,35.00,-6.24,-6.61
1049898,2135,0,169,0,35.00,-6.19,-6.62
1049920,2587,0,181,0,35.00,-6.17,-6.57
1049942,2715,0,191,0,35.00,-6.24,-6.60
1049964,2483,0,199,0,35.00,-6.21,-6.61
1050731,1991,0,189,0,34.04,-6.18,-6.59
1050767,1771,0,163,0,35.00,-6.16,-6.60
1050789,1607,0,183,0,35.00,-6.21,-6.62
1050811,1233,0,179,0,35.00,-6.24,-6.67
1050833,1407,0,183,0,35.00,-6.19,-6.60
1050855,1671,0,180,0,35.00,-6.17,-6.65
1050877,2063,0,188,0,35.00,-6.22,-6.61
1050899,2328,0,197,0,35.00,-6.19,-6.63
1050921,2591,0,201,0,35.00,-6.20,-6.63
1050943,2539,0,211,0,35.00,-6.25,-6.59
1050965,2297,0,205,0,35.00,-6.22,-6.62
1051747,1775,0,184,0,33.69,-6.18,-6.59
1051789,1254,0,186,0,35.00,-6.17,-6.62
1051811,1035,0,171,0,35.00,-6.17,-6.63
1051833,1176,0,169,0,35.00,-6.17,-6.56
1051855,1541,0,169,0,35.00,-6.18,-6.63
1051877,1972,0,180,0,35.00,-6.20,-6.58
1051899,2391,0,185,0,35.00,-6.19,-6.56
1051921,2565,0,185,0,35.00,-6.18,-6.64
1051943,2382,0,185,0,35.00,-6.21,-6.58
1051965,1998,0,199,0,35.00,-6.16,-6.60
1051987,1519,0,191,0,35.00,-6.23,-6.58
1052030,1192,0,175,0,35.00,-6.19,-6.61
1052052,1177,0,163,0,35.00,-6.16,-6.59
1052074,1493,0,167,0,35.00,-6.18,-6.61
1052096,1955,0,169,0,35.00,-6.16,-6.63
1052118,2361,0,181,0,35.00,-6.21,-6.65
1052140,2723,0,189,0,35.00,-6.16,-6.62
1052162,2805,0,197,0,35.00,-6.15,-6.58
1052184,2581,0,203,0,35.00,-6.17,-6.61
1052206,2075,0,205,0,35.00,-6.20,-6.62
1052228,1471,0,185,0,35.00,-6.18,-6.57
1052270,1099,0,173,0,35.00,-6.19,-6.60
1052292,1017,0,169,0,35.00,-6.18,-6.62
1052314,1291,0,169,0,35.00,-6.15,-6.58
1052336,1755,0,175,0,35.00,-6.16,-6.59
1052358,2197,0,183,0,35.00,-6.17,-6.60
1052380,2566,0,184,0,35.00,-6.14,-6.60
1052402,2709,0,202,0,35.00,-6.18,-6.60
1052424,2523,0,204,0,35.00,-6.22,-6.62
1052446,2011,0,202,0,35.00,-6.21,-6.60
1052468,1463,0,188,0,35.00,-6.21,-6.63
1052511,1078,0,173,0,35.00,-6.19,-6.60
1052533,1177,0,167,0,35.00,-6.21,-6.62
1052555,1543,0,167,0,35.00,-6.18,-6.61
1052577,1988,0,173,0,35.00,-6.15,-6.63
1052599,2419,0,179,0,35.00,-6.18,-6.61
1052621,2715,0,197,0,35.00,-6.19,-6.62
1052643,2663,0,190,0,35.00,-6.18,-6.59
1052665,2297,0,203,0,35.00,-6.16,-6.63
1052687,1740,0,191,0,35.00,-6.16,-6.60
1052709,1311,0,177,0,35.00,-6.17,-6.60
1052751,1100,0,168,0,35.00,-6.17,-6.66
1052773,1263,0,169,0,35.00,-6.19,-6.61
1052795,1579,0,165,0,35.00,-6.17,-6.61
1052817,2043,0,181,0,35.00,-6.20,-6.62
1052839,2429,0,181,0,35.00,-6.18,-6.62
1052861,2676,0,191,0,35.00,-6.16,-6.58
1052883,2590,0,201,0,35.00,-6.21,-6.62
1052905,2281,0,205,0,35.00,-6.13,-6.59
1052927,1723,0,187,0,35.00,-6.16,-6.58
1052949,1263,0,173,0,35.00,-6.17,-6.60
1052992,1060,0,169,0,35.00,-6.17,-6.59
1053525,1407,0,171,0,33.62,-6.15,-6.62
1053555,1647,0,187,0,35.00,-6.17,-6.56
1053577,2021,0,171,0,35.00,-6.17,-6.60
1053599,2413,0,175,0,35.00,-6.22,-6.60
1053621,2685,0,201,0,35.00,-6.19,-6.62
1053643,2596,0,199,0,35.00,-6.19,-6.61
1053665,2262,0,205,0,35.00,-6.19,-6.56
1053687,1690,0,189,0,35.00,-6.19,-6.60
1053709,1225,0,175,0,35.00,-6.17,-6.63
1053731,1079,0,172,0,35.00,-6.18,-6.59
1053773,1156,0,170,0,35.00,-6.21,-6.61
1053795,1590,0,165,0,35.00,-6.19,-6.58
1053817,2023,0,181,0,35.00,-6.21,-6.62
1053839,2397,0,173,0,35.00,-6.16,-6.59
1053861,2667,0,185,0,35.00,-6.17,-6.60
1053883,2601,0,188,0,35.00,-6.18,-6.62
1053905,2268,0,201,0,35.00,-6.18,-6.61
1053927,1707,0,189,0,35.00,-6.16,-6.62
1053949,1274,0,179,0,35.00,-6.19,-6.62
1053971,1117,0,168,0,35.00,-6.18,-6.61
1053993,1249,0,167,0,35.00,-6.15,-6.60
1054034,1581,0,165,0,35.00,-6.20,-6.61
1054056,1832,0,172,0,35.00,-6.20,-6.61
1054078,2187,0,169,0,35.00,-6.20,-6.62
1054100,2577,0,186,0,35.00,-6.16,-6.61
1054122,2671,0,197,0,35.00,-6.13,-6.60
1054144,2477,0,201,0,35.00,-6.19,-6.60
1054166,2001,0,203,0,35.00,-6.22,-6.62
1054188,1443,0,187,0,35.00,-6.25,-6.59
1054210,1125,0,180,0,35.00,-6.17,-6.59
1054232,1147,0,171,0,35.00,-6.14,-6.62
1054274,1387,0,166,0,35.00,-6.15,-6.61
1054296,1853,0,175,0,35.00,-6.14,-6.61
1054318,2209,0,171,0,35.00,-6.16,-6.58
1054340,2524,0,188,0,35.00,-6.16,-6.61
1054362,2617,0,197,0,35.00,-6.15,-6.58
1054384,2415,0,209,0,35.00,-6.22,-6.61
1054406,1942,0,197,0,35.00,-6.19,-6.60
1054428,1446,0,196,0,35.00,-6.15,-6.62
1054450,1119,0,169,0,35.00,-6.20,-6.64
1054472,1128,0,169,0,35.00,-6.20,-6.60
1054494,1383,0,167,0,35.00,-6.19,-6.62
1054535,1805,0,171,0,35.00,-6.16,-6.62
1054557,2023,0,173,0,35.00,-6.21,-6.59
1054579,2389,0,179,0,35.00,-6.20,-6.62
1054601,2629,0,199,0,35.00,-6.17,-6.57
1054623,2521,0,190,0,35.00,-6.17,-6.62
1054645,2219,0,213,0,35.00,-6.20,-6.62
1054667,1657,0,189,0,35.00,-6.19,-6.61
1054689,1237,0,177,0,35.00,-6.20,-6.59
1054711,1081,0,168,0,35.00,-6.19,-6.60
1054733,1245,0,167,0,35.00,-6.22,-6.59
1054776,1587,0,159,0,35.00,-6.19,-6.59
1054798,2247,0,172,0,35.00,-6.17,-6.59
1054820,2567,0,187,0,35.00,-6.16,-6.60
1054842,2648,0,201,0,35.00,-6.21,-6.63
1054864,2447,0,201,0,35.00,-6.18,-6.60
1054886,1948,0,197,0,35.00,-6.17,-6.58
1054908,1461,0,183,0,35.00,-6.17,-6.62
1054930,1141,0,169,0,35.00,-6.18,-6.60
1054952,1175,0,165,0,35.00,-6.21,-6.62
1054974,1387,0,163,0,35.00,-6.18,-6.59
1055557,1804,0,164,0,34.13,-6.18,-6.64
1055597,2451,0,181,0,35.00,-6.18,-6.58
1055619,2445,0,173,0,35.00,-6.22,-6.62
1055641,2647,0,188,0,35.00,-6.20,-6.62
1055663,2570,0,199,0,35.00,-6.15,-6.62
1055685,2196,0,201,0,35.00,-6.22,-6.63
1055707,1674,0,197,0,35.00,-6.20,-6.63
1055729,1243,0,171,0,35.00,-6.16,-6.59
1055751,1115,0,165,0,35.00,-6.19,-6.62
1055773,1287,0,169,0,35.00,-6.18,-6.62
1055795,1625,0,159,0,35.00,-6.21,-6.60
1055817,2036,0,181,0,35.00,-6.17,-6.62
1055858,2411,0,183,0,35.00,-6.20,-6.58
1055880,2554,0,184,0,35.00,-6.18,-6.62
1055902,2614,0,203,0,35.00,-6.21,-6.66
1055924,2423,0,207,0,35.00,-6.17,-6.60
1055946,1943,0,205,0,35.00,-6.18,-6.63
1055968,1445,0,181,0,35.00,-6.18,-6.61
1055990,1143,0,171,0,35.00,-6.16,-6.63
1056573,1175,0,173,0,34.17,-6.18,-6.60
1056604,1690,0,168,0,35.00,-6.18,-6.65
1056626,1967,0,189,0,35.00,-6.17,-6.65
1056648,1427,0,181,0,35.00,-6.18,-6.61
1056670,1126,0,163,0,35.00,-6.18,-6.60
1056692,1157,0,169,0,35.00,-6.18,-6.62
1056714,1425,0,160,0,35.00,-6.16,-6.61
1056736,1845,0,167,0,35.00,-6.16,-6.62
1056758,2275,0,170,0,35.00,-6.16,-6.62
1056800,2588,0,190,0,35.00,-6.16,-6.63
1056822,2654,0,185,0,35.00,-6.15,-6.63
1056844,2403,0,201,0,35.00,-6.17,-6.66
1056866,1915,0,199,0,35.00,-6.16,-6.60
1056888,1417,0,185,0,35.00,-6.21,-6.60
1056910,1142,0,172,0,35.00,-6.16,-6.61
1056932,1167,0,168,0,35.00,-6.17,-6.64
1056954,1443,0,169,0,35.00,-6.16,-6.62
1056976,1867,0,167,0,35.00,-6.15,-6.63
1056998,2255,0,175,0,35.00,-6.21,-6.59
1057040,2579,0,187,0,35.00,-6.17,-6.58
1057062,2647,0,201,0,35.00,-6.16,-6.62
1057084,2391,0,206,0,35.00,-6.18,-6.63
1057106,1886,0,203,0,35.00,-6.17,-6.65
1057128,1380,0,189,0,35.00,-6.16,-6.62
1057150,1111,0,167,0,35.00,-6.16,-6.60
1057172,1171,0,172,0,35.00,-6.16,-6.61
1057194,1451,0,168,0,35.00,-6.19,-6.58
1057216,1881,0,169,0,35.00,-6.19,-6.62
1057238,2266,0,175,0,35.00,-6.22,-6.62
1057260,2595,0,181,0,35.00,-6.18,-6.64
1057301,2604,0,189,0,35.00,-6.18,-6.63
1057323,2533,0,190,0,35.00,-6.20,-6.66
1057345,2161,0,201,0,35.00,-6.20,-6.59
1057367,1617,0,185,0,35.00,-6.17,-6.61
1057389,1215,0,172,0,35.00,-6.20,-6.61
1057411,1117,0,169,0,35.00,-6.14,-6.64
1057433,1259,0,156,0,35.00,-6.17,-6.59
1057455,1597,0,162,0,35.00,-6.19,-6.60
1057477,2073,0,167,0,35.00,-6.17,-6.65
1057499,2441,0,175,0,35.00,-6.19,-6.58
1057542,2667,0,186,0,35.00,-6.22,-6.59
1057564,2393,0,190,0,35.00,-6.17,-6.61
1057586,1882,0,202,0,35.00,-6.21,-6.61
1057608,1371,0,181,0,35.00,-6.17,-6.60
1057630,1129,0,167,0,35.00,-6.18,-6.60
1057652,1158,0,167,0,35.00,-6.14,-6.64
1057674,1437,0,159,0,35.00,-6.17,-6.59
1057696,1899,0,175,0,35.00,-6.13,-6.60
1057718,2275,0,171,0,35.00,-6.18,-6.62
1057740,2583,0,181,0,35.00,-6.15,-6.60
1057782,2619,0,187,0,35.00,-6.18,-6.62
1057804,2381,0,181,0,35.00,-6.16,-6.59
1057826,1849,0,201,0,35.00,-6.18,-6.58
1057848,1382,0,179,0,35.00,-6.19,-6.64
1057870,1121,0,175,0,35.00,-6.17,-6.63
1057892,1173,0,165,0,35.00,-6.17,-6.62
1057914,1453,0,163,0,35.00,-6.17,-6.59
1057936,1884,0,169,0,35.00,-6.15,-6.60
1057958,2263,0,170,0,35.00,-6.20,-6.58
1057980,2579,0,187,0,35.00,-6.18,-6.63
1058023,2631,0,199,0,35.00,-6.19,-6.60
1058045,2163,0,200,0,35.00,-6.16,-6.65
1058067,1626,0,191,0,35.00,-6.19,-6.62
1058089,1208,0,174,0,35.00,-6.19,-6.61
1058111,1109,0,165,0,35.00,-6.20,-6.67
1058133,1263,0,169,0,35.00,-6.18,-6.64
1058155,1675,0,172,0,35.00,-6.18,-6.60
1058177,2099,0,168,0,35.00,-6.19,-6.60
1058199,2473,0,175,0,35.00,-6.18,-6.62
1058221,2648,0,199,0,35.00,-6.16,-6.62
1058263,2505,0,198,0,35.00,-6.19,-6.61
1058285,2149,0,201,0,35.00,-6.13,-6.62
1058307,1592,0,200,0,35.00,-6.20,-6.62
1058329,1223,0,172,0,35.00,-6.14,-6.63
1058351,1135,0,178,0,35.00,-6.18,-6.61
1058373,1339,0,170,0,35.00,-6.19,-6.63
1058395,1677,0,167,0,35.00,-6.15,-6.62
1058417,2103,0,171,0,35.00,-6.16,-6.63
1058439,2451,0,185,0,35.00,-6.19,-6.61
1058461,2668,0,197,0,35.00,-6.21,-6.63
1058483,2513,0,201,0,35.00,-6.21,-6.61
1058524,2107,0,202,0,35.00,-6.21,-6.62
1058546,1851,0,198,0,35.00,-6.17,-6.61
1058568,1352,0,185,0,35.00,-6.13,-6.64
1058590,1113,0,173,0,35.00,-6.19,-6.58
1058612,1188,0,165,0,35.00,-6.17,-6.62
1058634,1477,0,165,0,35.00,-6.16,-6.59
1058656,1928,0,170,0,35.00,-6.16,-6.61
1058678,2313,0,175,0,35.00,-6.19,-6.63
1058700,2607,0,185,0,35.00,-6.18,-6.62
1058722,2620,0,202,0,35.00,-6.18,-6.63
1058764,2359,0,211,0,35.00,-6.19,-6.62
1058786,1831,0,199,0,35.00,-6.16,-6.60
1058808,1317,0,183,0,35.00,-6.17,-6.59
1058830,1105,0,167,0,35.00,-6.17,-6.63
1058852,1164,0,167,0,35.00,-6.16,-6.65
1058874,1477,0,172,0,35.00,-6.15,-6.60
1058896,1940,0,166,0,35.00,-6.21,-6.56
1058918,2330,0,170,0,35.00,-6.22,-6.61
1058940,2643,0,184,0,35.00,-6.17,-6.66
1058962,2645,0,199,0,35.00,-6.15,-6.60
1058984,2351,0,197,0,35.00,-6.23,-6.63
1059025,1827,0,191,0,35.00,-6.12,-6.62
1059047,1589,0,191,0,35.00,-6.18,-6.57
1059069,1191,0,179,0,35.00,-6.15,-6.62
1059091,1116,0,164,0,35.00,-6.18,-6.63
1059113,1311,0,158,0,35.00,-6.16,-6.63
1059135,1710,0,169,0,35.00,-6.18,-6.59
1059157,2117,0,171,0,35.00,-6.15,-6.59
1059179,2502,0,173,0,35.00,-6.18,-6.56
1059201,2639,0,190,0,35.00,-6.21,-6.62
1059223,2495,0,191,0,35.00,-6.21,-6.62
1059266,2095,0,211,0,35.00,-6.16,-6.60
1059288,1333,0,181,0,35.00,-6.16,-6.61
1059310,1097,0,173,0,35.00,-6.16,-6.61
1059332,1199,0,167,0,35.00,-6.20,-6.63
1059354,1482,0,157,0,35.00,-6.20,-6.58
1059376,1945,0,171,0,35.00,-6.16,-6.63
1059398,2333,0,171,0,35.00,-6.18,-6.60
1059420,2620,0,181,0,35.00,-6.17,-6.64
1059442,2613,0,195,0,35.00,-6.15,-6.62
1059464,2313,0,211,0,35.00,-6.14,-6.60
1059506,1807,0,198,0,35.00,-6.18,-6.62
1059528,1350,0,183,0,35.00,-6.18,-6.65
1059550,1101,0,170,0,35.00,-6.19,-6.68
1059572,1187,0,173,0,35.00,-6.14,-6.64
1059594,1491,0,153,0,35.00,-6.16,-6.65
1059616,1939,0,168,0,35.00,-6.17,-6.59
1059638,2335,0,169,0,35.00,-6.19,-6.62
1059660,2617,0,188,0,35.00,-6.16,-6.62
1059682,2629,0,186,0,35.00,-6.21,-6.62
1059704,2311,0,205,0,35.00,-6.14,-6.62
1059747,1801,0,192,0,35.00,-6.19,-6.62
1059769,1163,0,177,0,35.00,-6.14,-6.61
1059791,1116,0,168,0,35.00,-6.16,-6.58
1059813,1339,0,163,0,35.00,-6.17,-6.63
1059835,1737,0,165,0,35.00,-6.19,-6.61
1059857,2141,0,171,0,35.00,-6.13,-6.60
1059879,2493,0,197,0,35.00,-6.16,-6.60
1059901,2648,0,197,0,35.00,-6.20,-6.62
1059923,2501,0,200,0,35.00,-6.20,-6.63
1059945,2041,0,211,0,35.00,-6.20,-6.64
1059987,1519,0,186,0,35.00,-6.16,-6.63
1060384,1199,0,175,0,33.71,-6.16,-6.61
1060412,1753,0,199,0,35.00,-6.19,-6.59
1060434,1563,0,157,0,35.00,-6.16,-6.62
1060456,1982,0,168,0,35.00,-6.17,-6.59
1060478,2349,0,170,0,35.00,-6.20,-6.64
1060500,2635,0,187,0,35.00,-6.19,-6.63
1060522,2589,0,191,0,35.00,-6.18,-6.65
1060544,2265,0,202,0,35.00,-6.21,-6.65
1060566,1738,0,201,0,35.00,-6.16,-6.62
1060609,1289,0,185,0,35.00,-6.21,-6.60
1060631,1139,0,155,0,35.00,-6.21,-6.65
1060653,1373,0,158,0,35.00,-6.17,-6.60
1060675,1783,0,160,0,35.00,-6.18,-6.62
1060697,2207,0,171,0,35.00,-6.16,-6.62
1060719,2543,0,171,0,35.00,-6.18,-6.61
1060741,2671,0,197,0,35.00,-6.21,-6.64
1060763,2505,0,204,0,35.00,-6.17,-6.58
1060785,2023,0,201,0,35.00,-6.16,-6.63
1060807,1499,0,187,0,35.00,-6.15,-6.62
1060849,1158,0,171,0,35.00,-6.16,-6.62
1060871,1135,0,165,0,35.00,-6.19,-6.62
1060893,1357,0,169,0,35.00,-6.20,-6.63
1060915,1788,0,173,0,35.00,-6.20,-6.67
1060937,2222,0,179,0,35.00,-6.18,-6.60
1060959,2541,0,187,0,35.00,-6.17,-6.64
1060981,2633,0,199,0,35.00,-6.16,-6.62
1061400,2454,0,205,0,34.09,-6.18,-6.61
1061430,2589,0,199,0,35.00,-6.19,-6.65
1061452,1274,0,168,0,35.00,-6.15,-6.62
1061474,1593,0,165,0,35.00,-6.17,-6.68
1061496,2053,0,177,0,35.00,-6.20,-6.58
1061518,2392,0,179,0,35.00,-6.18,-6.65
1061540,2659,0,190,0,35.00,-6.22,-6.59
1061562,2587,0,201,0,35.00,-6.19,-6.63
1061584,2253,0,205,0,35.00,-6.17,-6.61
1061606,1684,0,187,0,35.00,-6.16,-6.62
1061628,1245,0,178,0,35.00,-6.18,-6.60
1061650,1115,0,169,0,35.00,-6.16,-6.65
1061691,1278,0,169,0,35.00,-6.19,-6.61
1061713,1433,0,169,0,35.00,-6.18,-6.60
1061735,1838,0,167,0,35.00,-6.21,-6.65
1061757,2249,0,171,0,35.00,-6.19,-6.59
1061779,2573,0,185,0,35.00,-6.18,-6.64
1061801,2648,0,191,0,35.00,-6.22,-6.62
1061823,2446,0,202,0,35.00,-6.19,-6.60
1061845,1952,0,191,0,35.00,-6.22,-6.61
1061867,1419,0,181,0,35.00,-6.14,-6.60
1061889,1140,0,171,0,35.00,-6.17,-6.66
1061931,1159,0,171,0,35.00,-6.18,-6.62
1061953,1419,0,169,0,35.00,-6.16,-6.62
1061975,1832,0,172,0,35.00,-6.16,-6.59
1061997,2249,0,179,0,35.00,-6.19,-6.60
1062416,2581,0,185,0,33.99,-6.17,-6.59
1062453,2456,0,181,0,35.00,-6.18,-6.61
1062475,1895,0,172,0,35.00,-6.21,-6.62
1062497,2268,0,176,0,35.00,-6.17,-6.62
1062519,2600,0,179,0,35.00,-6.18,-6.63
1062541,2661,0,201,0,35.00,-6.18,-6.58
1062563,2405,0,205,0,35.00,-6.17,-6.62
1062585,1897,0,199,0,35.00,-6.19,-6.64
1062607,1420,0,183,0,35.00,-6.20,-6.63
1062629,1129,0,171,0,35.00,-6.17,-6.61
1062651,1179,0,171,0,35.00,-6.17,-6.58
1062693,1439,0,168,0,35.00,-6.18,-6.63
1062715,1909,0,171,0,35.00,-6.19,-6.60
1062737,2281,0,172,0,35.00,-6.18,-6.62
1062759,2584,0,181,0,35.00,-6.18,-6.63
1062781,2602,0,187,0,35.00,-6.14,-6.59
1062803,2359,0,205,0,35.00,-6.17,-6.62
1062825,1866,0,191,0,35.00,-6.18,-6.61
1062847,1387,0,187,0,35.00,-6.18,-6.62
1062869,1115,0,174,0,35.00,-6.21,-6.61
1062891,1184,0,174,0,35.00,-6.19,-6.59
1062913,1453,0,163,0,35.00,-6.20,-6.61
1062954,1897,0,171,0,35.00,-6.19,-6.63
1062976,2129,0,183,0,35.00,-6.22,-6.63
1062998,2460,0,183,0,35.00,-6.16,-6.63
1063020,2660,0,191,0,35.00,-6.19,-6.64
1063042,2503,0,199,0,35.00,-6.18,-6.56
1063064,2127,0,204,0,35.00,-6.18,-6.63
1063086,1590,0,186,0,35.00,-6.17,-6.63
1063108,1205,0,173,0,35.00,-6.19,-6.62
1063130,1085,0,164,0,35.00,-6.20,-6.64
1063152,1273,0,171,0,35.00,-6.17,-6.61
1063194,1677,0,165,0,35.00,-6.16,-6.60
1063216,2132,0,171,0,35.00,-6.18,-6.62
1063238,2471,0,179,0,35.00,-6.18,-6.66
1063260,2634,0,201,0,35.00,-6.17,-6.63
1063282,2503,0,199,0,35.00,-6.21,-6.62
1063304,2123,0,201,0,35.00,-6.15,-6.62
1063326,1575,0,189,0,35.00,-6.21,-6.63
1063348,1197,0,171,0,35.00,-6.18,-6.61
1063370,1108,0,167,0,35.00,-6.16,-6.63
1063392,1290,0,165,0,35.00,-6.15,-6.64
1063414,1693,0,163,0,35.00,-6.15,-6.63
1063455,2131,0,172,0,35.00,-6.20,-6.60
1063477,2309,0,167,0,35.00,-6.17,-6.60
1063499,2577,0,183,0,35.00,-6.16,-6.62
1063521,2600,0,197,0,35.00,-6.21,-6.61
1063543,2331,0,201,0,35.00,-6.18,-6.61
1063565,1824,0,197,0,35.00,-6.22,-6.64
1063587,1341,0,184,0,35.00,-6.16,-6.61
1063609,1115,0,171,0,35.00,-6.17,-6.62
1063631,1191,0,169,0,35.00,-6.12,-6.60
1063653,1513,0,163,0,35.00,-6.16,-6.61
1063695,1944,0,174,0,35.00,-6.19,-6.63
1063717,2323,0,171,0,35.00,-6.18,-6.63
1063739,2634,0,185,0,35.00,-6.18,-6.64
1063761,2621,0,187,0,35.00,-6.17,-6.61
1063783,2329,0,201,0,35.00,-6.18,-6.62
1063805,1799,0,191,0,35.00,-6.18,-6.60
1063827,1319,0,183,0,35.00,-6.17,-6.61
1063849,1112,0,173,0,35.00,-6.18,-6.58
1063871,1197,0,169,0,35.00,-6.20,-6.61
1063893,1502,0,165,0,35.00,-6.17,-6.60
1063915,1958,0,177,0,35.00,-6.18,-6.60
1063956,2325,0,175,0,35.00,-6.23,-6.62
1063978,2508,0,176,0,35.00,-6.20,-6.62
1064702,2651,0,186,0,34.31,-6.15,-6.64
1064738,2019,0,203,0,35.00,-6.18,-6.63
1064760,2677,0,190,0,35.00,-6.21,-6.62
1064782,2467,0,199,0,35.00,-6.19,-6.59
1064804,2015,0,200,0,35.00,-6.18,-6.60
1064826,1483,0,187,0,35.00,-6.17,-6.62
1064848,1164,0,175,0,35.00,-6.17,-6.65
1064870,1171,0,165,0,35.00,-6.15,-6.59
1064892,1386,0,165,0,35.00,-6.14,-6.60
1064914,1809,0,168,0,35.00,-6.18,-6.61
1064936,2233,0,171,0,35.00,-6.20,-6.59
1064978,2573,0,181,0,35.00,-6.13,-6.62
1065719,2677,0,191,0,33.90,-6.19,-6.60
1065760,2577,0,197,0,35.00,-6.16,-6.61
1065782,2439,0,205,0,35.00,-6.18,-6.62
1065804,1933,0,199,0,35.00,-6.18,-6.61
1065826,1431,0,187,0,35.00,-6.21,-6.61
1065848,1173,0,171,0,35.00,-6.20,-6.60
1065870,1189,0,169,0,35.00,-6.17,-6.61
1065892,1437,0,159,0,35.00,-6.19,-6.61
1065914,1864,0,165,0,35.00,-6.21,-6.63
1065936,2237,0,173,0,35.00,-6.17,-6.61
1065958,2591,0,190,0,35.00,-6.21,-6.61
1066735,2630,0,189,0,33.90,-6.15,-6.61
1066762,2515,0,179,0,35.00,-6.20,-6.63
1066784,1801,0,197,0,35.00,-6.16,-6.59
1066806,1320,0,178,0,35.00,-6.13,-6.67
1066828,1112,0,171,0,35.00,-6.16,-6.62
1066850,1207,0,164,0,35.00,-6.21,-6.62
1066872,1519,0,159,0,35.00,-6.18,-6.60
1066894,1971,0,170,0,35.00,-6.15,-6.60
1066916,2364,0,179,0,35.00,-6.20,-6.63
1066938,2623,0,186,0,35.00,-6.19,-6.60
1066960,2637,0,197,0,35.00,-6.17,-6.64
1066982,2343,0,199,0,35.00,-6.18,-6.64
1067023,1813,0,197,0,35.00,-6.19,-6.63
1067045,1549,0,184,0,35.00,-6.17,-6.62
1067067,1171,0,173,0,35.00,-6.19,-6.62
1067089,1115,0,163,0,35.00,-6.19,-6.62
1067111,1341,0,171,0,35.00,-6.13,-6.61
1067133,1751,0,166,0,35.00,-6.17,-6.63
1067155,2171,0,171,0,35.00,-6.19,-6.62
1067177,2519,0,172,0,35.00,-6.19,-6.65
1067199,2667,0,198,0,35.00,-6.21,-6.61
1067221,2493,0,203,0,35.00,-6.14,-6.62
1067263,2066,0,203,0,35.00,-6.19,-6.64
1067285,1527,0,187,0,35.00,-6.20,-6.62
1067307,1157,0,169,0,35.00,-6.18,-6.59
1067329,1125,0,165,0,35.00,-6.19,-6.59
1067351,1387,0,165,0,35.00,-6.16,-6.62
1067373,1801,0,170,0,35.00,-6.18,-6.64
1067395,2201,0,166,0,35.00,-6.16,-6.62
1067417,2525,0,179,0,35.00,-6.16,-6.64
1067439,2631,0,187,0,35.00,-6.22,-6.62
1067461,2437,0,185,0,35.00,-6.20,-6.60
1067483,2005,0,191,0,35.00,-6.16,-6.62
1067524,1471,0,179,0,35.00,-6.17,-6.62
1067546,1307,0,176,0,35.00,-6.16,-6.60
1067568,1125,0,159,0,35.00,-6.19,-6.64
1067590,1251,0,166,0,35.00,-6.17,-6.62
1067612,1573,0,159,0,35.00,-6.16,-6.62
1067634,2019,0,169,0,35.00,-6.17,-6.62
1067656,2380,0,169,0,35.00,-6.16,-6.61
1067678,2637,0,183,0,35.00,-6.19,-6.63
1067700,2585,0,197,0,35.00,-6.17,-6.64
1067722,2245,0,209,0,35.00,-6.20,-6.58
1067764,1707,0,187,0,35.00,-6.16,-6.60
1067786,1268,0,179,0,35.00,-6.20,-6.63
1067808,1105,0,159,0,35.00,-6.16,-6.61
1067830,1261,0,165,0,35.00,-6.17,-6.65
1067852,1595,0,165,0,35.00,-6.20,-6.62
1067874,2022,0,171,0,35.00,-6.20,-6.62
1067896,2393,0,175,0,35.00,-6.20,-6.64
1067918,2639,0,185,0,35.00,-6.21,-6.63
1067940,2549,0,189,0,35.00,-6.17,-6.62
1067962,2229,0,215,0,35.00,-6.19,-6.59
1067984,1673,0,188,0,35.00,-6.17,-6.63
1068025,1253,0,175,0,35.00,-6.19,-6.61
1068047,1166,0,173,0,35.00,-6.21,-6.62
1068069,1157,0,165,0,35.00,-6.17,-6.61
1068091,1401,0,165,0,35.00,-6.17,-6.62
1068113,1849,0,171,0,35.00,-6.16,-6.56
1068135,2231,0,172,0,35.00,-6.19,-6.61
1068157,2552,0,179,0,35.00,-6.18,-6.61
1068179,2615,0,188,0,35.00,-6.15,-6.64
1068201,2403,0,200,0,35.00,-6.21,-6.66
1068223,1894,0,187,0,35.00,-6.18,-6.60
1068266,1417,0,174,0,35.00,-6.18,-6.58
1068288,1128,0,168,0,35.00,-6.14,-6.60
1068310,1293,0,159,0,35.00,-6.17,-6.62
1068332,1636,0,165,0,35.00,-6.18,-6.63
1068354,2063,0,173,0,35.00,-6.14,-6.61
1068376,2451,0,173,0,35.00,-6.20,-6.62
1068398,2623,0,189,0,35.00,-6.17,-6.60
1068420,2527,0,201,0,35.00,-6.19,-6.63
1068442,2151,0,203,0,35.00,-6.19,-6.58
1068464,1625,0,191,0,35.00,-6.19,-6.63
1068506,1227,0,185,0,35.00,-6.20,-6.59
1068528,1097,0,159,0,35.00,-6.17,-6.59
1068550,1285,0,169,0,35.00,-6.18,-6.64
1068572,1655,0,165,0,35.00,-6.18,-6.62
1068594,2101,0,171,0,35.00,-6.17,-6.60
1068616,2463,0,176,0,35.00,-6.20,-6.62
1068638,2658,0,187,0,35.00,-6.17,-6.60
1068660,2523,0,200,0,35.00,-6.16,-6.63
1068682,2151,0,201,0,35.00,-6.21,-6.66
1068704,1591,0,179,0,35.00,-6.16,-6.62
1068747,1198,0,170,0,35.00,-6.15,-6.63
1068769,1200,0,163,0,35.00,-6.18,-6.62
1068791,1461,0,160,0,35.00,-6.17,-6.64
1068813,1897,0,168,0,35.00,-6.18,-6.61
1068835,2293,0,171,0,35.00,-6.17,-6.62
1068857,2591,0,183,0,35.00,-6.18,-6.59
1068879,2621,0,197,0,35.00,-6.21,-6.62
1068901,2363,0,211,0,35.00,-6.20,-6.64
1068923,1833,0,188,0,35.00,-6.19,-6.63
1068945,1353,0,184,0,35.00,-6.20,-6.63
1068987,1115,0,169,0,35.00,-6.17,-6.62
1069529,1209,0,165,0,34.26,-6.16,-6.63
1069569,1557,0,165,0,35.00,-6.16,-6.60
1069591,1551,0,157,0,35.00,-6.19,-6.61
1069613,1983,0,171,0,35.00,-6.22,-6.62
1069635,2373,0,173,0,35.00,-6.17,-6.62
1069657,2619,0,186,0,35.00,-6.19,-6.62
1069679,2597,0,187,0,35.00,-6.21,-6.60
1069701,2284,0,191,0,35.00,-6.16,-6.59
1069723,1766,0,187,0,35.00,-6.18,-6.63
1069745,1316,0,169,0,35.00,-6.17,-6.64
1069767,1113,0,165,0,35.00,-6.16,-6.58
1069809,1257,0,157,0,35.00,-6.22,-6.64
1069831,1591,0,168,0,35.00,-6.12,-6.62
1069853,2019,0,173,0,35.00,-6.20,-6.61
1069875,2413,0,171,0,35.00,-6.21,-6.64
1069897,2658,0,187,0,35.00,-6.20,-6.61
1069919,2575,0,191,0,35.00,-6.19,-6.62
1069941,2263,0,205,0,35.00,-6.19,-6.60
1069963,1694,0,190,0,35.00,-6.18,-6.62
1069985,1263,0,175,0,35.00,-6.19,-6.62
1070546,1081,0,159,0,33.85,-6.16,-6.65
1070576,1164,0,165,0,35.00,-6.15,-6.61
1070598,2662,0,187,0,35.00,-6.19,-6.61
1070620,2403,0,199,0,35.00,-6.18,-6.59
1070642,1918,0,197,0,35.00,-6.16,-6.59
1070664,1370,0,179,0,35.00,-6.17,-6.62
1070686,1126,0,167,0,35.00,-6.14,-6.60
1070708,1191,0,165,0,35.00,-6.17,-6.61
1070730,1448,0,167,0,35.00,-6.18,-6.62
1070771,1890,0,169,0,35.00,-6.19,-6.66
1070793,2100,0,179,0,35.00,-6.15,-6.65
1070815,2468,0,175,0,35.00,-6.18,-6.59
1070837,2653,0,187,0,35.00,-6.21,-6.61
1070859,2567,0,201,0,35.00,-6.15,-6.62
1070881,2165,0,202,0,35.00,-6.16,-6.62
1070903,1637,0,190,0,35.00,-6.19,-6.65
1070925,1221,0,167,0,35.00,-6.17,-6.61
1070947,1099,0,159,0,35.00,-6.16,-6.61
1070969,1289,0,159,0,35.00,-6.20,-6.64
1070991,1677,0,165,0,35.00,-6.17,-6.63
1071032,2093,0,171,0,35.00,-6.21,-6.62
1071054,2297,0,174,0,35.00,-6.18,-6.62
1071076,2601,0,181,0,35.00,-6.17,-6.64
1071098,2613,0,189,0,35.00,-6.20,-6.62
1071120,2355,0,198,0,35.00,-6.20,-6.61
1071142,1847,0,190,0,35.00,-6.15,-6.65
1071164,1357,0,175,0,35.00,-6.18,-6.60
1071186,1095,0,168,0,35.00,-6.17,-6.63
1071208,1205,0,169,0,35.00,-6.18,-6.62
1071230,1480,0,165,0,35.00,-6.15,-6.62
1071273,1937,0,175,0,35.00,-6.13,-6.58
1071295,2516,0,173,0,35.00,-6.16,-6.63
1071317,2655,0,183,0,35.00,-6.16,-6.60
1071339,2493,0,191,0,35.00,-6.20,-6.60
1071361,2077,0,199,0,35.00,-6.19,-6.61
1071383,1531,0,184,0,35.00,-6.15,-6.62
1071405,1187,0,173,0,35.00,-6.17,-6.60
1071427,1139,0,165,0,35.00,-6.19,-6.66
1071449,1321,0,164,0,35.00,-6.16,-6.66
1071471,1715,0,163,0,35.00,-6.19,-6.62
1071513,2137,0,167,0,35.00,-6.18,-6.65
1071535,2533,0,173,0,35.00,-6.17,-6.67
1071557,2650,0,190,0,35.00,-6.14,-6.61
1071579,2488,0,197,0,35.00,-6.16,-6.63
1071601,2067,0,204,0,35.00,-6.16,-6.62
1071623,1508,0,183,0,35.00,-6.22,-6.64
1071645,1147,0,173,0,35.00,-6.15,-6.59
1071667,1135,0,165,0,35.00,-6.16,-6.60
1071689,1337,0,169,0,35.00,-6.19,-6.62
1071711,1751,0,167,0,35.00,-6.19,-6.64
1071754,2201,0,166,0,35.00,-6.19,-6.60
1071776,2645,0,181,0,35.00,-6.20,-6.61
1071798,2577,0,196,0,35.00,-6.17,-6.63
1071820,2255,0,199,0,35.00,-6.21,-6.63
1071842,1712,0,190,0,35.00,-6.20,-6.60
1071864,1293,0,165,0,35.00,-6.17,-6.62
1071886,1109,0,157,0,35.00,-6.21,-6.62
1071908,1243,0,164,0,35.00,-6.18,-6.63
1071930,1575,0,164,0,35.00,-6.19,-6.64
1071952,2013,0,167,0,35.00,-6.20,-6.61
1071994,2381,0,171,0,35.00,-6.17,-6.64
1072578,2630,0,185,0,33.95,-6.20,-6.62
1072616,2207,0,204,0,35.00,-6.19,-6.61
1072638,2583,0,187,0,35.00,-6.18,-6.60
1072660,2213,0,199,0,35.00,-6.17,-6.58
1072682,1677,0,187,0,35.00,-6.18,-6.61
1072704,1242,0,166,0,35.00,-6.20,-6.60
1072726,1117,0,165,0,35.00,-6.14,-6.60
1072748,1273,0,156,0,35.00,-6.19,-6.63
1072770,1646,0,159,0,35.00,-6.19,-6.66
1072792,2079,0,165,0,35.00,-6.19,-6.63
1072814,2457,0,176,0,35.00,-6.18,-6.63
1072856,2659,0,189,0,35.00,-6.13,-6.63
1072878,2571,0,190,0,35.00,-6.19,-6.58
1072900,2187,0,198,0,35.00,-6.17,-6.62
1072922,1608,0,183,0,35.00,-6.22,-6.62
1072944,1245,0,171,0,35.00,-6.17,-6.63
1072966,1139,0,158,0,35.00,-6.20,-6.63
1072988,1321,0,159,0,35.00,-6.21,-6.62
1073594,1687,0,165,0,33.97,-6.16,-6.59
1073625,2669,0,183,0,35.00,-6.18,-6.59
1073647,1245,0,159,0,35.00,-6.19,-6.65
1073669,1517,0,159,0,35.00,-6.20,-6.59
1073691,1959,0,173,0,35.00,-6.21,-6.64
1073713,2349,0,169,0,35.00,-6.18,-6.61
1073735,2633,0,180,0,35.00,-6.20,-6.65
1073757,2607,0,185,0,35.00,-6.17,-6.63
1073798,2293,0,188,0,35.00,-6.22,-6.59
1073820,2045,0,187,0,35.00,-6.19,-6.62
1073842,1497,0,172,0,35.00,-6.21,-6.63
1073864,1165,0,169,0,35.00,-6.16,-6.64
1073886,1133,0,163,0,35.00,-6.18,-6.65
1073908,1383,0,159,0,35.00,-6.18,-6.65
1073930,1789,0,173,0,35.00,-6.20,-6.59
1073952,2213,0,167,0,35.00,-6.17,-6.64
1073974,2523,0,169,0,35.00,-6.16,-6.64
1073996,2653,0,186,0,35.00,-6.21,-6.63
1074358,2463,0,189,0,33.96,-6.19,-6.58
1074400,1877,0,192,0,35.00,-6.17,-6.65
1074422,1437,0,167,0,35.00,-6.11,-6.56
1074444,1193,0,145,0,35.00,-6.20,-6.64
1074466,1245,0,146,0,35.00,-6.20,-6.64
1074488,1471,0,141,0,35.00,-6.19,-6.56
1074510,1925,0,151,0,35.00,-6.16,-6.61
1074532,2282,0,153,0,35.00,-6.17,-6.62
1074554,2615,0,167,0,35.00,-6.19,-6.61
1074576,2645,0,175,0,35.00,-6.12,-6.59
1074598,2428,0,185,0,35.00,-6.20,-6.60
1074640,1955,0,184,0,35.00,-6.19,-6.60
1074662,1461,0,172,0,35.00,-6.16,-6.63
1074684,1163,0,168,0,35.00,-6.16,-6.59
1074706,1171,0,158,0,35.00,-6.21,-6.57
1074728,1437,0,153,0,35.00,-6.18,-6.63
1074750,1881,0,156,0,35.00,-6.17,-6.63
1074772,2263,0,149,0,35.00,-6.19,-6.62
1074794,2540,0,168,0,35.00,-6.19,-6.61
1074816,2611,0,169,0,35.00,-6.17,-6.60
1074838,2359,0,162,0,35.00,-6.21,-6.62
1074860,1877,0,165,0,35.00,-6.18,-6.62
1074901,1381,0,139,0,35.00,-6.20,-6.60
1074923,1225,0,143,0,35.00,-6.14,-6.61
