timestamp,ecg,gsr,gas,pulse,temp,acc_x,acc_y
23530,2173,27312,187,0,35.76,-7.23,-4.93
23569,1845,26800,157,0,35.00,-7.24,-4.94
23591,1787,26800,164,0,35.00,-7.25,-4.98
23613,2056,26800,159,0,35.00,-7.21,-4.90
23635,2297,26800,164,0,35.00,-7.21,-4.96
23657,2150,26800,149,0,35.00,-7.24,-4.95
23679,1786,26800,140,0,35.00,-7.26,-4.93
23701,1433,26800,139,0,35.00,-7.24,-4.96
23723,1229,26416,136,0,35.00,-7.25,-4.95
23745,1197,26416,159,0,35.00,-7.24,-4.93
23767,1463,26416,172,0,35.00,-7.26,-4.94
23789,1767,26416,181,0,35.00,-7.27,-4.96
23830,1675,26416,152,0,35.00,-7.24,-4.92
23852,1277,26416,136,0,35.00,-7.26,-4.96
23874,1045,26416,116,0,35.00,-7.27,-4.94
23896,1630,26416,125,0,35.00,-7.28,-4.94
23918,1843,26416,133,0,35.00,-7.24,-4.93
23940,1611,26416,135,0,35.00,-7.25,-4.91
23962,1699,26416,137,0,35.00,-7.25,-4.93
23984,1581,26416,147,0,35.00,-7.26,-4.94
24551,1589,26416,157,0,35.30,-7.24,-4.95
24592,1904,25136,157,0,35.00,-7.26,-4.94
24614,1461,25136,127,0,35.00,-7.24,-4.91
24636,1443,25136,111,0,35.00,-7.21,-4.91
24658,1641,25136,123,0,35.00,-7.20,-4.90
24680,2027,25136,151,0,35.00,-7.26,-4.98
24702,2318,25136,179,0,35.00,-7.20,-4.98
24724,1959,25136,150,0,35.00,-7.25,-4.94
24746,1645,25136,159,0,35.00,-7.22,-4.93
24768,1449,25136,153,0,35.00,-7.29,-4.96
24790,1261,25136,139,0,35.00,-7.21,-4.93
24832,1139,25904,126,0,35.00,-7.27,-4.93
24854,1593,25136,151,0,35.00,-7.25,-4.92
24876,2199,25136,180,0,35.00,-7.23,-4.98
24898,2671,25136,181,0,35.00,-7.22,-4.95
24920,2075,25136,134,0,35.00,-7.26,-4.92
24942,1837,25136,127,0,35.00,-7.24,-4.93
24964,1639,25136,133,0,35.00,-7.26,-4.95
24986,1043,25136,120,0,35.00,-7.23,-4.92
25571,973,25136,135,0,35.00,-7.24,-4.93
25602,1748,25136,188,0,35.00,-7.25,-4.93
25624,2527,25136,171,0,35.00,-7.22,-4.91
25646,1939,25904,153,0,35.00,-7.27,-4.94
25668,1629,25136,157,0,35.00,-7.26,-4.96
25690,1499,25904,157,0,35.00,-7.24,-4.97
25712,1262,25136,141,0,35.00,-7.24,-4.96
25754,1317,25904,137,0,35.00,-7.27,-4.95
25776,2221,25904,189,0,35.00,-7.25,-4.96
25798,2806,25904,197,0,35.00,-7.25,-4.93
25820,2259,25904,151,0,35.00,-7.28,-4.95
25842,1967,25136,142,0,35.00,-7.25,-4.93
25864,1743,25904,132,0,35.00,-7.25,-4.94
25886,1417,25904,136,0,35.00,-7.26,-4.96
25908,1623,25136,163,0,35.00,-7.27,-4.95
25930,1903,25136,197,0,35.00,-7.23,-4.98
25952,2006,25136,179,0,35.00,-7.24,-4.97
25974,1960,25136,172,0,35.00,-7.25,-4.98
26592,1900,25136,157,0,35.50,-7.24,-4.92
26623,2005,25136,187,0,35.00,-7.26,-4.94
26645,2002,25136,138,0,35.00,-7.29,-4.93
26667,1947,25136,157,0,35.00,-7.25,-4.95
26689,1693,25136,163,0,35.00,-7.22,-4.95
26711,1592,25136,173,0,35.00,-7.24,-4.94
26733,1765,25136,181,0,35.00,-7.25,-4.93
26755,1817,25136,173,0,35.00,-7.25,-4.92
26797,1887,25136,163,0,35.00,-7.24,-4.93
26819,1951,25136,166,0,35.00,-7.23,-4.92
26841,1709,25136,139,0,35.00,-7.24,-4.94
26863,1780,25136,140,0,35.00,-7.28,-4.94
26885,1619,25136,127,0,35.00,-7.27,-4.95
26907,1453,25136,137,0,35.00,-7.24,-4.94
26929,1187,25136,137,0,35.00,-7.28,-4.97
26951,1008,25136,151,0,35.00,-7.28,-4.97
26973,1062,25136,157,0,35.00,-7.27,-4.94
26995,1551,25136,183,0,35.00,-7.25,-4.90
27038,1791,25136,163,0,35.00,-7.21,-4.95
27060,1503,25136,133,0,35.00,-7.20,-4.97
27082,1607,25136,121,0,35.00,-7.25,-4.94
27104,1463,25136,102,0,35.00,-7.26,-4.95
27126,1270,25904,102,0,35.00,-7.27,-4.93
27148,1193,25904,126,0,35.00,-7.22,-4.95
27170,1623,25136,168,0,35.00,-7.22,-4.99
27192,2187,25136,191,0,35.00,-7.23,-4.94
27214,2019,25136,173,0,35.00,-7.23,-4.96
27236,1877,25136,167,0,35.00,-7.27,-4.92
27278,1877,25136,151,0,35.00,-7.26,-4.98
27300,1843,25136,135,0,35.00,-7.27,-4.95
27322,1891,25136,123,0,35.00,-7.31,-4.96
27344,2111,25136,143,0,35.00,-7.24,-4.98
27366,2519,25136,171,0,35.00,-7.23,-4.90
27388,2439,25136,163,0,35.00,-7.25,-4.94
27410,2202,25136,171,0,35.00,-7.26,-4.94
27432,2043,25136,176,0,35.00,-7.25,-4.95
27454,1839,25136,174,0,35.00,-7.29,-4.94
27476,1637,25136,157,0,35.00,-7.26,-4.94
27519,1655,25136,154,0,35.00,-7.28,-4.94
27541,2236,25136,174,0,35.00,-7.27,-4.91
27563,2490,25136,179,0,35.00,-7.26,-4.94
27585,1837,25136,127,0,35.00,-7.24,-4.94
27607,1515,25136,123,0,35.00,-7.25,-4.97
27629,1445,25136,133,0,35.00,-7.24,-4.94
27651,1129,25904,122,0,35.00,-7.22,-4.95
27673,869,25136,132,0,35.00,-7.24,-4.92
27695,825,25136,141,0,35.00,-7.24,-4.95
27717,1173,25136,154,0,35.00,-7.26,-4.98
27759,1901,25136,167,0,35.00,-7.25,-4.91
27781,1575,25904,117,0,35.00,-7.27,-4.93
27803,1559,25136,107,0,35.00,-7.23,-4.96
27825,1545,25904,101,0,35.00,-7.22,-4.94
27847,1323,25136,91,0,35.00,-7.26,-4.95
27869,1250,25904,105,0,35.00,-7.19,-4.93
27891,1397,25904,134,0,35.00,-7.25,-4.93
27913,1945,25136,179,0,35.00,-7.26,-4.94
27935,2265,25136,173,0,35.00,-7.23,-4.92
27957,1957,25136,155,0,35.00,-7.27,-4.94
27979,1903,25904,147,0,35.00,-7.24,-4.91
28020,1811,25904,122,0,35.00,-7.23,-4.96
28042,1450,25136,106,0,35.00,-7.24,-4.95
28064,1543,25136,111,0,35.00,-7.22,-4.91
28086,1989,24624,139,0,35.00,-7.27,-4.93
28108,2441,24624,167,0,35.00,-7.27,-4.93
28130,2189,24624,150,99956,35.00,-7.26,-4.98
28152,1938,24624,151,99932,35.00,-7.28,-4.97
28174,1821,24624,159,99980,35.00,-7.26,-4.93
28196,1739,24624,151,99980,35.00,-7.24,-4.90
28218,1503,24624,147,99980,35.00,-7.25,-4.94
28261,1641,24624,135,99980,35.00,-7.25,-4.98
28283,2538,24624,166,99980,35.00,-7.27,-4.95
28305,2585,25136,149,99980,35.00,-7.27,-4.94
28327,2197,25136,134,99980,35.00,-7.28,-4.93
28349,2053,25136,141,99980,35.00,-7.24,-4.94
28371,1853,25136,134,99980,35.00,-7.27,-4.94
28393,1516,25136,143,99980,35.00,-7.23,-4.96
28415,1573,25136,155,99980,35.00,-7.24,-4.95
28437,1925,25136,179,99980,35.00,-7.26,-4.92
28459,2479,25136,203,99980,35.00,-7.25,-4.94
28501,2745,25136,187,99980,35.00,-7.24,-4.92
28523,2283,25136,154,99980,35.00,-7.25,-4.94
28545,2220,25136,141,99980,35.00,-7.26,-4.93
28567,1855,25136,122,99980,35.00,-7.22,-4.92
28589,1877,25136,135,99980,35.00,-7.24,-4.96
28611,1835,25136,157,99980,35.00,-7.24,-4.91
28633,2106,25136,188,99980,35.00,-7.23,-4.95
28655,2213,25136,191,99980,35.00,-7.30,-4.93
28677,2002,25136,187,99980,35.00,-7.28,-4.93
28699,1935,25136,181,99980,35.00,-7.26,-4.91
28742,1898,25136,157,99980,35.00,-7.24,-4.90
28764,1763,25136,141,99980,35.00,-7.25,-4.93
28786,1815,25136,143,99980,35.00,-7.30,-4.96
28808,2042,25136,166,99980,35.00,-7.24,-4.92
28830,1827,25136,145,99980,35.00,-7.24,-4.95
28852,1496,25136,149,99980,35.00,-7.25,-4.96
28874,1379,25136,159,99980,35.00,-7.29,-4.93
28896,1158,25136,149,99980,35.00,-7.28,-4.98
28918,1031,25136,153,99980,35.00,-7.27,-4.92
28940,1180,25136,154,99980,35.00,-7.20,-4.97
28982,1335,25136,149,99980,35.00,-7.25,-4.95
29396,1521,25136,123,99980,35.47,-7.23,-4.96
29424,2615,25904,211,99980,35.00,-7.28,-4.96
29446,2407,25904,155,99980,35.00,-7.21,-4.97
29468,2283,25904,155,99980,35.00,-7.25,-4.95
29490,1819,25904,149,99980,35.00,-7.27,-4.94
29512,1587,25904,155,99980,35.00,-7.27,-4.94
29534,1527,25904,169,99980,35.00,-7.22,-4.96
29556,1631,25136,184,99980,35.00,-7.24,-4.97
29578,1971,25904,201,99975,35.00,-7.26,-4.96
29600,2136,25904,197,99909,35.00,-7.27,-4.92
29622,2098,25904,179,99897,35.00,-7.26,-4.94
29664,1801,25904,153,99897,35.00,-7.24,-4.96
29686,1275,25904,139,99897,35.00,-7.24,-4.95
29708,2317,25904,158,99897,35.00,-7.23,-4.92
29730,2009,25904,151,99897,35.00,-7.26,-4.93
29752,1746,25904,149,99897,35.00,-7.27,-4.95
29774,1579,25904,152,99897,35.00,-7.26,-4.95
29796,1801,25904,169,99897,35.00,-7.22,-5.00
29818,1031,25904,159,99897,35.00,-7.21,-4.98
29840,1151,26416,157,99897,35.00,-7.25,-4.99
29862,1510,25904,155,99897,35.00,-7.26,-4.99
29905,395,26416,109,99897,35.00,-7.24,-4.92
29927,347,26416,85,99897,35.00,-7.27,-4.93
29949,628,26416,91,99897,35.00,-7.18,-4.96
29971,1203,26416,107,99897,35.00,-7.25,-4.99
29993,1478,26416,121,99897,35.00,-7.28,-4.94
30417,1783,26416,149,99897,35.06,-7.26,-4.96
30446,3876,25904,291,99897,35.00,-7.25,-4.97
30468,1849,25904,201,99897,35.00,-7.23,-4.94
30490,1310,26416,168,99897,35.00,-7.23,-4.93
30512,1422,25904,165,99897,35.00,-7.21,-4.94
30534,2009,25904,183,99897,35.00,-7.27,-4.97
30556,1997,25904,186,99897,35.00,-7.22,-4.95
30578,1979,25904,215,99897,35.00,-7.26,-4.92
30600,1769,25904,219,99897,35.00,-7.23,-4.94
30622,1911,25904,221,99897,35.00,-7.24,-4.96
30644,1813,25904,200,99897,35.00,-7.25,-4.96
30687,1749,25904,185,99897,35.00,-7.25,-4.94
30709,1181,25904,149,99897,35.00,-7.24,-4.95
30731,1031,25904,149,99897,35.00,-7.25,-4.94
30753,949,25904,141,99897,35.00,-7.24,-4.94
30775,627,25904,147,99897,35.00,-7.25,-4.96
30797,581,25904,151,99897,35.00,-7.29,-4.93
30819,633,25904,167,99897,35.00,-7.25,-4.96
30841,679,25904,167,99897,35.00,-7.25,-4.92
30863,751,25904,165,99897,35.00,-7.28,-4.96
30885,661,25904,149,99897,35.00,-7.26,-4.95
30927,759,25904,134,99897,35.00,-7.30,-4.92
30949,1095,25904,119,99897,35.00,-7.22,-4.96
30971,1015,25904,117,99897,35.00,-7.26,-4.99
30993,1061,25904,111,99897,35.00,-7.25,-4.91
31437,1096,25904,123,99897,35.64,-7.26,-4.90
31469,2011,26416,164,99897,35.00,-7.24,-4.94
31491,2287,25904,141,99897,35.00,-7.25,-4.95
31513,2143,26416,137,99897,35.00,-7.29,-4.93
31535,2013,26416,137,99897,35.00,-7.26,-4.93
31557,1682,26416,121,99897,35.00,-7.28,-4.98
31579,1135,26416,117,99897,35.00,-7.22,-4.93
31601,986,26416,111,99897,35.00,-7.22,-4.97
31623,795,26416,109,99897,35.00,-7.22,-4.94
31645,1085,26416,105,99897,35.00,-7.21,-4.95
31667,1685,25904,110,99897,35.00,-7.28,-4.94
31709,1428,26416,95,99897,35.00,-7.24,-4.93
31731,1255,26416,77,99897,35.00,-7.24,-4.95
31753,1077,26416,71,99897,35.00,-7.27,-4.95
31775,1137,26416,82,99897,35.00,-7.22,-4.92
31797,1286,26416,105,99897,35.00,-7.25,-4.93
31819,1352,26416,120,99897,35.00,-7.25,-4.96
31841,1432,26416,133,99897,35.00,-7.26,-4.96
31863,1443,26416,145,99897,35.00,-7.26,-4.94
31885,1847,26416,149,99897,35.00,-7.24,-4.90
31907,2257,26416,146,99897,35.00,-7.25,-4.93
31929,2357,26416,127,99897,35.00,-7.26,-4.90
31970,2607,26416,127,99897,35.00,-7.24,-4.93
31992,2585,26416,126,99897,35.00,-7.22,-4.92
32713,2471,26416,133,99897,35.40,-7.23,-4.95
32752,1827,27312,147,99897,35.00,-7.27,-4.98
32774,2429,27312,184,99897,35.00,-7.25,-4.93
32796,2837,27312,205,99897,35.00,-7.28,-4.95
32818,2933,27312,243,99897,35.00,-7.26,-4.91
32840,3409,27312,281,99897,35.00,-7.24,-4.96
32862,3449,27312,294,99897,35.00,-7.27,-4.94
32884,2762,27312,251,99897,35.00,-7.23,-4.95
32906,2148,27312,219,99897,35.00,-7.22,-4.93
32928,1955,27312,202,99897,35.00,-7.25,-4.96
32950,2073,27312,215,99897,35.00,-7.24,-5.00
32992,1925,28080,150,99897,35.00,-7.27,-4.93
33733,603,28080,87,99897,35.24,-7.25,-4.93
33774,1951,28784,149,99897,35.00,-7.30,-4.92
33796,1870,28592,147,99897,35.00,-7.21,-4.92
33818,1637,28592,139,99897,35.00,-7.25,-4.91
33840,1361,28784,139,99897,35.00,-7.28,-4.94
33862,1233,28784,146,99897,35.00,-7.24,-4.95
33884,1336,28784,171,99897,35.00,-7.26,-4.91
33906,1432,28784,169,99897,35.00,-7.27,-4.95
33928,1517,28592,167,99897,35.00,-7.28,-4.97
33950,1384,28784,143,99897,35.00,-7.30,-4.93
33972,1187,28592,118,99897,35.00,-7.23,-4.92
33994,841,28784,91,99897,35.00,-7.26,-4.95
34035,738,28784,87,99897,35.00,-7.23,-4.95
34057,1097,28784,83,99897,35.00,-7.25,-4.94
34079,1273,28784,107,99897,35.00,-7.23,-4.94
34101,1427,28784,136,99897,35.00,-7.27,-4.95
34123,1337,28784,137,99897,35.00,-7.26,-4.91
34145,1205,28784,147,99897,35.00,-7.25,-4.97
34167,1403,28784,161,99897,35.00,-7.27,-4.94
34189,1883,28784,191,99897,35.00,-7.25,-4.95
34211,2727,28784,231,99897,35.00,-7.22,-4.95
34233,3847,28784,286,99897,35.00,-7.21,-4.91
34275,3867,28784,265,99897,35.00,-7.26,-4.95
34297,1879,28784,109,99897,35.00,-7.24,-4.96
34319,1330,28784,98,99897,35.00,-7.25,-4.98
34341,797,28784,92,99897,35.00,-7.24,-4.93
34363,788,28784,103,99897,35.00,-7.26,-4.95
34385,933,28784,125,99897,35.00,-7.25,-4.96
34407,1189,28784,153,99897,35.00,-7.23,-4.94
34429,1353,28784,149,99897,35.00,-7.30,-4.95
34451,1197,28784,136,99897,35.00,-7.27,-4.94
34473,1531,28784,152,99897,35.00,-7.26,-4.97
34495,2375,28784,179,99897,35.00,-7.24,-4.91
34536,2461,28784,167,99897,35.00,-7.26,-4.93
34558,1741,28784,108,99897,35.00,-7.26,-4.94
34580,1689,28784,110,99897,35.00,-7.24,-4.95
34602,1461,28784,110,99897,35.00,-7.25,-4.89
34624,1621,28784,142,99897,35.00,-7.27,-4.95
34646,1752,28784,165,99897,35.00,-7.25,-4.96
34668,2205,28784,184,99897,35.00,-7.21,-4.95
34690,2281,28784,192,99897,35.00,-7.25,-4.96
34712,2506,28784,197,99897,35.00,-7.27,-4.96
34734,2475,28784,182,99897,35.00,-7.28,-4.96
34777,2493,28784,165,99897,35.00,-7.23,-4.96
34799,2439,28784,141,99897,35.00,-7.25,-4.94
34821,1823,28784,127,99897,35.00,-7.24,-4.95
34843,1811,28784,136,99897,35.00,-7.24,-4.95
34865,1423,28784,147,99897,35.00,-7.27,-4.94
34887,1493,28784,155,99897,35.00,-7.25,-4.96
34909,1439,28784,167,99897,35.00,-7.27,-4.92
34931,1533,28784,155,99897,35.00,-7.24,-4.92
34953,1711,28784,153,99897,35.00,-7.24,-4.93
34975,1759,29296,138,99897,35.00,-7.24,-4.92
35518,1543,29296,119,99897,35.16,-7.24,-4.94
35559,2902,28784,183,99897,35.00,-7.24,-4.91
35581,2565,28784,179,99897,35.00,-7.24,-4.96
35603,2389,29296,183,99897,35.00,-7.24,-4.94
35625,2333,28784,203,99897,35.00,-7.28,-4.91
35647,2086,28784,215,99897,35.00,-7.27,-4.94
35669,1983,28784,218,99897,35.00,-7.30,-4.92
35691,2053,28784,219,99897,35.00,-7.27,-4.97
35713,2093,28784,210,99897,35.00,-7.25,-4.94
35735,2057,28784,192,99897,35.00,-7.25,-4.92
35757,2019,28784,181,99897,35.00,-7.25,-4.92
35799,1945,29296,173,99897,35.00,-7.24,-4.95
35821,1835,29296,160,99897,35.00,-7.24,-4.93
35843,1497,29296,167,99897,35.00,-7.25,-4.96
35865,1197,29296,166,99897,35.00,-7.27,-4.92
35887,1095,29296,175,99897,35.00,-7.25,-5.00
35909,979,29296,179,99897,35.00,-7.24,-4.95
35931,787,28784,173,99897,35.00,-7.24,-4.93
35953,632,29296,159,99897,35.00,-7.21,-4.90
35975,441,29296,136,99897,35.00,-7.25,-4.92
35997,346,28784,115,99897,35.00,-7.25,-4.96
36040,270,29296,101,99897,35.00,-7.20,-4.95
36062,30,28784,79,99897,35.00,-7.24,-4.93
36084,27,29296,89,99897,35.00,-7.26,-4.94
36106,0,29296,99,99897,35.00,-7.23,-4.97
36128,0,29296,111,99897,35.00,-7.25,-4.93
36150,242,29296,113,99897,35.00,-7.24,-5.00
36172,435,29296,118,99897,35.00,-7.22,-5.00
36194,665,29296,107,99897,35.00,-7.25,-4.93
36216,773,29296,92,99897,35.00,-7.23,-4.94
36238,1096,29296,89,99897,35.00,-7.26,-4.90
36280,1293,28784,85,99897,35.00,-7.23,-4.92
36302,1509,29296,87,99897,35.00,-7.26,-4.97
36324,1695,28784,105,99897,35.00,-7.29,-4.95
36346,1828,29296,118,99897,35.00,-7.26,-4.92
36368,1851,28784,139,99897,35.00,-7.24,-4.94
36390,2108,28784,153,99897,35.00,-7.22,-4.95
36412,2331,29296,157,99897,35.00,-7.24,-4.93
36434,2649,29296,159,99897,35.00,-7.22,-4.95
36456,2860,29296,157,99897,35.00,-7.25,-4.92
36478,2887,29296,157,99897,35.00,-7.26,-4.94
36500,2953,29296,153,99897,35.00,-7.25,-4.97
36541,3038,29296,153,99897,35.00,-7.26,-4.96
36563,2972,29296,151,99897,35.00,-7.23,-4.96
36585,3567,29296,183,99897,35.00,-7.23,-4.94
36607,3304,29296,189,99897,35.00,-7.21,-4.93
36629,2766,29296,201,99897,35.00,-7.25,-4.94
36651,2583,29296,203,99897,35.00,-7.24,-4.93
36673,2719,29296,206,99897,35.00,-7.25,-4.95
36695,2887,29296,205,99897,35.00,-7.19,-4.93
36717,2996,29296,202,99897,35.00,-7.23,-4.93
36739,2823,29296,181,99897,35.00,-7.27,-4.94
36781,2537,29296,168,99897,35.00,-7.26,-4.96
36803,2231,29296,154,99897,35.00,-7.21,-4.91
36825,2264,29296,171,99897,35.00,-7.26,-4.99
36847,1785,29296,169,99897,35.00,-7.25,-4.91
36869,1653,29296,180,99897,35.00,-7.26,-4.92
36891,1511,29296,181,99897,35.00,-7.23,-4.94
36913,1597,29296,182,99897,35.00,-7.27,-4.94
36935,1678,29296,181,99897,35.00,-7.27,-4.91
36957,1670,29296,163,99897,35.00,-7.24,-4.94
36979,1803,30064,153,99897,35.00,-7.27,-4.95
37558,1931,29296,147,99897,35.34,-7.26,-4.91
37589,1765,29296,139,99897,35.00,-7.24,-4.96
37611,1453,29296,151,99897,35.00,-7.25,-4.94
37633,1642,29296,154,99897,35.00,-7.24,-4.96
37655,1939,29296,168,99897,35.00,-7.27,-4.91
37677,2015,29296,157,99897,35.00,-7.26,-4.95
37699,2121,30064,151,99897,35.00,-7.21,-4.95
37721,2475,30064,143,99897,35.00,-7.14,-4.90
37743,2121,30064,137,99897,35.00,-7.20,-4.84
37784,1979,30064,127,99897,35.00,-7.24,-4.94
37806,2351,30064,143,99897,35.00,-7.22,-4.96
37828,2227,30064,155,99897,35.00,-7.23,-4.94
37850,2079,30064,168,99897,35.00,-7.26,-4.90
37872,2156,30064,184,99897,35.00,-7.27,-4.91
37894,2267,30064,189,99897,35.00,-7.24,-4.94
37916,2396,30064,189,99897,35.00,-7.22,-4.90
37938,2535,30064,188,99897,35.00,-7.26,-4.96
37960,2675,30064,199,99897,35.00,-7.22,-4.95
37982,2807,30064,181,99897,35.00,-7.22,-4.91
38025,2937,30064,189,99897,35.00,-7.24,-4.96
38047,2943,30064,205,99897,35.00,-7.23,-4.95
38069,2943,30064,231,99897,35.00,-7.26,-4.94
38091,2231,30064,189,99897,35.00,-7.26,-4.92
38113,1867,30064,183,99897,35.00,-7.24,-4.91
38135,1871,30064,189,99897,35.00,-7.23,-4.94
38157,1843,30064,187,99897,35.00,-7.24,-4.94
38179,1749,30064,167,99897,35.00,-7.29,-4.99
38201,1677,30064,155,99897,35.00,-7.24,-4.93
38223,1767,30064,149,99897,35.00,-7.27,-4.93
38265,1743,30064,143,99897,35.00,-7.24,-4.95
38287,1221,30064,121,99897,35.00,-7.25,-4.95
38309,1134,30064,141,99897,35.00,-7.25,-4.91
38331,1223,30064,163,99897,35.00,-7.28,-4.93
38353,1320,30064,181,99897,35.00,-7.28,-4.94
38375,1425,29296,183,99897,35.00,-7.26,-4.93
38397,1373,30064,168,99897,35.00,-7.26,-4.92
38419,1331,30064,151,99897,35.00,-7.25,-4.95
38441,1445,30064,136,99897,35.00,-7.27,-4.96
38463,1557,30064,124,99897,35.00,-7.24,-4.93
38485,1439,30064,121,99897,35.00,-7.22,-4.93
38526,1399,30064,123,99897,35.00,-7.25,-4.92
38548,1254,30064,109,99897,35.00,-7.24,-4.92
38570,1127,30064,127,99897,35.00,-7.26,-4.94
38592,1183,30064,143,99897,35.00,-7.24,-4.93
38614,1177,30064,151,99897,35.00,-7.24,-4.96
38636,1187,30576,154,99897,35.00,-7.24,-4.94
38658,1375,30064,153,99897,35.00,-7.27,-4.94
38680,1431,30064,141,99897,35.00,-7.24,-4.90
38702,1693,30064,139,99897,35.00,-7.26,-4.96
38724,1623,30064,121,99897,35.00,-7.27,-4.94
38766,1606,30576,119,99897,35.00,-7.26,-4.96
38788,1640,30576,120,99897,35.00,-7.24,-4.92
38810,1641,30576,134,99897,35.00,-7.25,-4.94
38832,1555,30576,141,99897,35.00,-7.24,-4.92
38854,1611,30576,156,99897,35.00,-7.24,-4.96
38876,1749,30576,159,99897,35.00,-7.24,-4.91
38898,1891,30576,167,99897,35.00,-7.26,-4.95
38920,1948,30576,151,99897,35.00,-7.26,-4.96
38942,2029,30576,146,99897,35.00,-7.30,-4.94
38964,2003,30576,123,99897,35.00,-7.23,-4.94
38986,2159,30064,126,99897,35.00,-7.24,-4.95
39027,2023,30064,121,99897,35.00,-7.22,-4.94
39049,2174,30064,135,99897,35.00,-7.27,-4.97
39071,2073,30064,143,99897,35.00,-7.27,-4.92
39093,1908,30064,156,99897,35.00,-7.19,-4.94
39115,1913,30064,159,99897,35.00,-7.26,-4.92
39137,2047,30064,173,99897,35.00,-7.26,-5.00
39159,2207,30064,171,99897,35.00,-7.21,-4.91
39181,2202,30064,165,99897,35.00,-7.24,-4.93
39203,2216,30064,147,99897,35.00,-7.30,-4.95
39225,2063,30064,136,99897,35.00,-7.24,-4.94
39268,1875,30576,123,99897,35.00,-7.24,-4.97
39290,1672,30064,127,99897,35.00,-7.23,-4.96
39312,1593,30576,141,99897,35.00,-7.26,-4.94
39334,1609,30576,163,99897,35.00,-7.27,-4.93
39356,1609,30576,164,99897,35.00,-7.27,-4.91
39378,1694,30576,164,99897,35.00,-7.25,-4.95
39400,1909,30576,156,99897,35.00,-7.24,-4.95
39422,1957,30576,149,99897,35.00,-7.23,-4.94
39444,1769,30576,133,99897,35.00,-7.23,-4.94
39466,1726,30576,123,99897,35.00,-7.29,-4.92
39508,1715,30576,118,99897,35.00,-7.29,-4.94
39530,1789,30576,124,99897,35.00,-7.26,-4.91
39552,1507,30576,134,99897,35.00,-7.28,-4.94
39574,1353,30576,147,99897,35.00,-7.26,-4.93
39596,1467,30064,153,99897,35.00,-7.26,-4.93
39618,1644,30064,159,99897,35.00,-7.25,-4.96
39640,1982,30576,151,99897,35.00,-7.23,-4.91
39662,1929,30064,153,99897,35.00,-7.26,-4.94
39684,1767,30576,125,99897,35.00,-7.27,-4.96
39706,1769,30576,121,99897,35.00,-7.26,-4.95
39728,1899,30576,118,99897,35.00,-7.25,-4.97
39769,1997,30576,125,99897,35.00,-7.28,-4.95
39791,1742,30576,125,99897,35.00,-7.23,-4.94
39813,1707,30576,150,99897,35.00,-7.23,-4.94
39835,1879,30576,159,99897,35.00,-7.26,-4.90
39857,1903,30576,169,99897,35.00,-7.25,-4.97
39879,1864,30576,167,99897,35.00,-7.27,-4.94
39901,1935,30576,167,99897,35.00,-7.23,-4.96
39923,2123,30576,157,99897,35.00,-7.27,-4.92
39945,2199,30576,143,99897,35.00,-7.22,-4.95
39967,2235,30576,139,99897,35.00,-7.23,-4.96
40363,2126,30576,139,99897,35.13,-7.21,-4.93
40391,1547,30576,138,99897,35.00,-7.25,-4.93
40413,1293,30960,133,99897,35.00,-7.25,-4.92
40435,1269,30960,141,99897,35.00,-7.25,-5.01
40457,1225,30576,147,99897,35.00,-7.28,-4.95
40479,1075,30576,153,99897,35.00,-7.24,-4.95
40501,1229,30576,151,99897,35.00,-7.22,-4.93
40523,1330,30576,135,99897,35.00,-7.26,-4.92
40545,1533,30576,121,99897,35.00,-7.24,-4.94
40567,1503,30576,111,99897,35.00,-7.25,-4.94
40589,1245,30576,102,99897,35.00,-7.27,-4.92
40631,1193,30576,103,99897,35.00,-7.26,-4.96
40653,601,30064,105,99897,35.00,-7.26,-4.95
40675,1903,28784,137,99897,35.00,-7.24,-4.98
40697,1739,28784,157,99897,35.00,-7.28,-4.96
40719,1629,28784,155,99897,35.00,-7.28,-4.94
40741,1933,28784,159,99897,35.00,-7.27,-4.99
40763,2248,28784,157,99897,35.00,-7.25,-4.93
40785,2151,28784,151,99897,35.00,-7.30,-4.91
40807,2001,29296,125,99897,35.00,-7.26,-4.94
40829,2431,29296,126,99897,35.00,-7.24,-4.95
40872,1774,29296,114,99897,35.00,-7.25,-4.92
40894,1885,29296,139,99897,35.00,-7.24,-4.93
40916,1743,29296,147,99897,35.00,-7.30,-4.95
40938,1770,29296,163,99897,35.00,-7.24,-4.93
40960,1813,28784,167,99897,35.00,-7.24,-4.92
40982,1970,29296,166,99897,35.00,-7.26,-4.94
41383,2063,29296,155,99897,35.90,-7.23,-4.91
41413,1669,29296,125,99897,35.00,-7.20,-4.90
41435,1318,29296,117,99897,35.00,-7.21,-4.97
41457,1233,29296,133,99897,35.00,-7.29,-4.97
41479,1321,29296,140,99897,35.00,-7.24,-4.95
41501,1577,29296,144,99897,35.00,-7.27,-4.94
41523,1571,29296,139,99897,35.00,-7.27,-4.94
41545,1699,29296,137,99897,35.00,-7.23,-4.92
41567,1819,28784,121,99897,35.00,-7.25,-4.92
41589,1845,29296,115,99897,35.00,-7.24,-4.96
41611,1771,29296,109,99897,35.00,-7.25,-4.92
41654,1724,29296,111,99897,35.00,-7.22,-4.96
41676,1716,28784,119,99897,35.00,-7.25,-4.98
41698,1727,29296,146,99897,35.00,-7.24,-4.90
41720,1641,29296,149,99897,35.00,-7.24,-4.93
41742,1759,28784,153,99897,35.00,-7.30,-4.94
41764,1961,29296,153,99897,35.00,-7.24,-4.99
41786,2143,29296,143,99897,35.00,-7.23,-4.93
41808,2239,29296,139,99897,35.00,-7.24,-4.92
41830,2357,29296,137,99897,35.00,-7.24,-4.95
41852,2268,29296,136,99897,35.00,-7.25,-4.98
41894,2041,29296,133,99897,35.00,-7.24,-4.93
41916,2093,28784,149,99897,35.00,-7.22,-4.91
41938,2057,28784,163,99897,35.00,-7.23,-4.95
41960,2437,28784,181,99897,35.00,-7.22,-4.94
41982,1996,28784,179,99897,35.00,-7.27,-4.90
42403,2518,28784,181,99897,36.11,-7.23,-4.96
42435,1237,28784,159,99897,35.00,-7.23,-4.95
42457,1387,28784,135,99897,35.00,-7.21,-4.93
42479,871,28784,147,99897,35.00,-7.27,-4.95
42501,682,28784,141,99897,35.00,-7.25,-4.93
42523,1139,28784,153,99897,35.00,-7.28,-4.95
42545,1310,28784,156,99897,35.00,-7.25,-4.95
42567,1277,28784,145,99897,35.00,-7.27,-4.92
42589,1373,28784,141,99897,35.00,-7.28,-4.96
42611,1228,28784,125,99897,35.00,-7.23,-4.94
42633,1707,28784,135,99897,35.00,-7.25,-4.94
42655,1125,28592,109,99897,35.00,-7.24,-4.97
42696,1020,28592,117,99897,35.00,-7.25,-4.94
42718,1129,28080,118,99897,35.00,-7.23,-4.91
42740,879,28080,119,99897,35.00,-7.26,-4.98
42762,1070,28080,137,99897,35.00,-7.22,-4.94
42784,989,28080,133,99897,35.00,-7.25,-4.94
42806,1423,28080,134,99897,35.00,-7.29,-4.95
42828,1519,28080,126,99897,35.00,-7.24,-4.97
42850,1611,28080,115,99897,35.00,-7.25,-4.93
42872,1555,28080,106,99897,35.00,-7.28,-4.95
42894,1435,28080,103,99897,35.00,-7.27,-4.93
42916,1315,28080,107,99897,35.00,-7.28,-4.94
42957,1368,28080,116,99897,35.00,-7.25,-4.93
42979,2249,28080,141,99897,35.00,-7.26,-4.96
43423,1583,28080,153,99897,35.03,-7.24,-4.95
43458,1870,28592,170,99897,35.00,-7.25,-4.95
43480,1868,28592,143,99897,35.00,-7.28,-4.91
43502,1631,28592,163,99897,35.00,-7.25,-4.90
43524,1991,28080,167,99897,35.00,-7.27,-4.94
43546,2041,28080,179,99897,35.00,-7.25,-4.94
43568,2035,28080,157,99897,35.00,-7.24,-4.91
43590,1884,28080,139,99897,35.00,-7.24,-4.95
43612,1742,28080,115,99897,35.00,-7.26,-4.92
43634,1873,28592,121,99897,35.00,-7.26,-4.95
43656,1997,28592,119,99897,35.00,-7.24,-4.96
43699,1743,28592,133,99897,35.00,-7.29,-4.95
43721,1615,28592,139,99897,35.00,-7.25,-4.93
43743,1554,28592,156,99897,35.00,-7.27,-4.93
43765,1565,28592,165,99897,35.00,-7.28,-4.89
43787,1701,28592,168,99897,35.00,-7.27,-4.95
43809,1879,28080,152,99897,35.00,-7.29,-4.94
43831,2299,28080,151,99897,35.00,-7.27,-4.94
43853,3003,28080,159,99897,35.00,-7.24,-4.94
43875,1531,27312,115,99897,35.00,-7.23,-4.92
43897,1657,27312,119,99897,35.00,-7.28,-4.94
43939,1852,27312,137,99897,35.00,-7.24,-4.94
43961,1645,27312,143,99897,35.00,-7.25,-4.97
43983,1587,27312,155,99897,35.00,-7.26,-4.96
44699,1671,27312,160,99897,35.84,-7.24,-4.95
44741,1519,28080,115,99897,35.00,-7.25,-4.93
44763,1670,28080,135,99897,35.00,-7.23,-4.92
44785,1621,28080,147,99897,35.00,-7.27,-4.91
44807,1832,28080,152,99897,35.00,-7.24,-4.92
44829,2117,28080,155,99897,35.00,-7.29,-4.94
44851,2379,28080,152,99897,35.00,-7.25,-4.91
44873,2587,28080,158,99897,35.00,-7.24,-4.96
44895,2489,28080,137,99897,35.00,-7.24,-4.94
44917,2237,28592,125,99897,35.00,-7.22,-4.95
44939,2211,28080,122,99897,35.00,-7.24,-4.91
44982,1990,28592,135,99897,35.00,-7.24,-4.94
45719,1781,28080,140,99897,35.63,-7.26,-4.94
45744,1822,28592,117,99897,35.00,-7.24,-4.90
45766,1357,28592,143,99897,35.00,-7.25,-4.97
45788,1463,28592,155,99897,35.00,-7.22,-4.94
45810,1683,28592,165,99897,35.00,-7.24,-4.94
45832,2005,28592,159,99897,35.00,-7.27,-4.97
45854,1721,28592,127,99897,35.00,-7.26,-4.94
45876,1723,28592,117,99897,35.00,-7.22,-4.94
45898,1660,28592,109,99897,35.00,-7.21,-4.95
45920,1655,28784,109,99897,35.00,-7.21,-4.94
45942,1568,28592,107,99897,35.00,-7.23,-4.96
45984,1429,28592,115,99897,35.00,-7.26,-4.95
46740,1503,28784,135,99897,34.99,-7.23,-4.92
46766,1356,28784,115,99897,35.00,-7.25,-4.91
46788,1044,28784,145,99897,35.00,-7.25,-4.94
46810,1041,28592,151,99897,35.00,-7.24,-4.93
46832,1195,28784,159,99897,35.00,-7.24,-4.96
46854,1363,28784,152,99897,35.00,-7.25,-4.96
46876,1382,28784,135,99897,35.00,-7.24,-4.92
46898,1397,28784,115,99897,35.00,-7.21,-4.96
46920,1358,28784,105,99897,35.00,-7.24,-4.91
46942,1385,28784,109,99897,35.00,-7.26,-4.97
46964,1354,28784,115,99897,35.00,-7.26,-4.93
47506,1139,28784,118,99897,35.35,-7.25,-4.96
47548,2009,28784,167,99897,35.00,-7.24,-4.92
47570,2255,28784,204,99897,35.00,-7.24,-4.95
47592,2261,28784,211,99897,35.00,-7.27,-4.93
47614,2359,28784,219,99897,35.00,-7.25,-4.96
47636,2361,28784,215,99897,35.00,-7.24,-4.97
47658,2447,28784,212,99897,35.00,-7.24,-4.91
47680,2607,28784,201,99897,35.00,-7.28,-4.92
47702,2311,28784,171,99897,35.00,-7.27,-4.96
47724,1963,28784,155,99897,35.00,-7.24,-4.97
47746,1613,28784,153,99897,35.00,-7.22,-4.94
47788,1331,28784,154,99897,35.00,-7.26,-4.96
47810,1055,28784,157,99897,35.00,-7.26,-4.96
47832,1034,28784,154,99897,35.00,-7.27,-4.96
47854,1115,28784,168,99897,35.00,-7.24,-4.93
47876,1336,28784,159,99897,35.00,-7.25,-4.96
47898,1477,28784,157,99897,35.00,-7.24,-4.98
47920,1407,28784,138,99897,35.00,-7.26,-4.92
47942,1383,28784,123,99897,35.00,-7.24,-4.94
47964,1204,28784,108,99897,35.00,-7.28,-4.95
47986,1051,28784,117,99897,35.00,-7.26,-4.92
48525,919,28784,119,99897,35.99,-7.26,-4.94
48555,2265,28784,154,99897,35.00,-7.25,-4.93
48577,2152,28784,184,99897,35.00,-7.25,-4.92
48599,2299,28784,178,99897,35.00,-7.25,-4.92
48621,2367,29296,171,99897,35.00,-7.26,-4.98
48643,2409,28784,159,99897,35.00,-7.28,-4.93
48665,2163,28784,151,99897,35.00,-7.24,-4.96
48687,1911,28784,147,99897,35.00,-7.26,-4.95
48709,1690,28784,150,99897,35.00,-7.24,-4.98
48751,1527,29296,159,99897,35.00,-7.26,-4.91
48773,1311,28784,164,99897,35.00,-7.23,-4.95
48795,1433,28784,173,99897,35.00,-7.27,-4.91
48817,1709,28784,189,99897,35.00,-7.27,-4.94
48839,2203,28784,199,99897,35.00,-7.28,-4.94
48861,2285,28784,199,99897,35.00,-7.25,-4.94
48883,2364,28784,189,99897,35.00,-7.27,-4.98
48905,2956,28784,211,99897,35.00,-7.26,-4.95
48927,2879,28784,201,99897,35.00,-7.24,-4.92
48949,2159,28784,166,99897,35.00,-7.24,-4.94
48991,1338,28784,149,99897,35.00,-7.26,-4.95
49546,1119,28784,159,99897,34.86,-7.19,-4.95
49576,842,28784,86,99897,35.00,-7.24,-4.89
49598,890,28784,139,99897,35.00,-7.25,-4.91
49620,1439,28784,146,99897,35.00,-7.28,-4.95
49642,1768,28784,145,99897,35.00,-7.27,-4.93
49664,1885,28784,121,99897,35.00,-7.27,-4.96
49686,1531,28784,107,99897,35.00,-7.25,-4.94
49708,1673,28784,114,99897,35.00,-7.26,-4.96
49730,1660,28784,127,99897,35.00,-7.25,-4.96
49752,1786,28784,142,99897,35.00,-7.22,-4.95
49793,1822,28784,153,99897,35.00,-7.28,-4.94
49815,1625,28784,151,99897,35.00,-7.26,-4.92
49837,1608,28784,152,99897,35.00,-7.22,-4.94
49859,1651,28784,162,99897,35.00,-7.27,-4.92
49881,1695,28784,138,99897,35.00,-7.22,-4.97
49903,1737,28784,151,99897,35.00,-7.26,-4.94
49925,1877,28784,117,99897,35.00,-7.26,-4.95
49947,1848,28784,116,99897,35.00,-7.27,-4.93
49969,1755,28784,107,99897,35.00,-7.25,-4.91
49991,1661,28784,121,99897,35.00,-7.26,-4.97
50566,1619,28784,125,99897,35.11,-7.26,-4.95
50597,2226,28784,145,99897,35.00,-7.26,-4.94
50619,1733,28784,179,99897,35.00,-7.26,-4.93
50641,1887,28784,175,99897,35.00,-7.29,-4.94
50663,1945,28784,165,99897,35.00,-7.23,-4.95
50685,1979,29296,153,99897,35.00,-7.24,-4.92
50707,2003,29296,146,99897,35.00,-7.26,-4.92
50729,1952,28784,140,99897,35.00,-7.21,-4.95
50751,1925,29296,137,99897,35.00,-7.24,-4.93
50773,1865,28784,147,99897,35.00,-7.21,-4.93
50795,1833,28784,164,99897,35.00,-7.26,-4.95
50836,1479,28784,167,99897,35.00,-7.24,-4.98
50858,1705,28784,179,99897,35.00,-7.24,-4.92
50880,1613,28784,179,99897,35.00,-7.26,-4.92
50902,1714,28784,175,99897,35.00,-7.28,-4.97
50924,1855,28592,165,99897,35.00,-7.23,-4.96
50946,1869,28592,152,99897,35.00,-7.24,-4.94
50968,1758,28592,139,99897,35.00,-7.29,-4.96
50990,1621,28592,133,99897,35.00,-7.24,-4.94
51587,1677,28592,143,99897,35.97,-7.24,-4.94
51618,821,28592,149,99897,35.00,-7.19,-4.88
51640,3725,28592,221,99897,35.00,-7.36,-5.04
51662,3737,28592,235,99897,35.00,-6.85,-4.90
51684,3743,28592,239,99897,35.00,-7.32,-4.96
51706,2763,28592,223,99897,35.00,-7.18,-5.00
51728,3783,28592,219,99897,35.00,-7.22,-4.96
51750,3773,28592,210,99897,35.00,-7.28,-4.95
51772,3763,28592,199,99897,35.00,-7.20,-4.97
51794,2661,28592,169,99897,35.00,-7.22,-5.07
51816,2920,28592,189,99897,35.00,-7.28,-4.96
51858,2810,28592,204,99897,35.00,-7.20,-5.00
51880,1877,28080,189,99897,35.00,-7.21,-4.97
51902,1339,28592,185,99897,35.00,-7.26,-4.95
51924,1260,28592,183,99897,35.00,-7.27,-4.97
51946,2595,28080,205,99897,35.00,-7.21,-4.97
51968,2471,28080,186,99897,35.00,-7.22,-4.98
51990,2267,28080,165,99897,35.00,-7.22,-4.97
52353,1447,28080,141,99931,36.54,-7.25,-4.94
52381,2057,28080,133,99931,35.00,-7.22,-4.96
52403,1195,28080,151,99931,35.00,-7.19,-4.99
52425,1925,28592,165,99931,35.00,-7.22,-4.99
52447,1972,28592,155,99931,35.00,-7.22,-4.98
52469,1987,28592,155,99931,35.00,-7.19,-5.04
52491,2655,28592,156,99931,35.00,-7.22,-4.97
52513,2377,28592,155,99931,35.00,-7.23,-5.00
52535,2695,28592,171,99931,35.00,-7.21,-4.99
52557,1880,28592,157,99931,35.00,-7.21,-4.97
52579,2133,28592,173,99931,35.00,-7.24,-4.95
52620,2223,28592,191,99931,35.00,-7.20,-4.97
52642,2164,28592,201,99931,35.00,-7.22,-4.97
52664,2245,28592,212,99931,35.00,-7.22,-4.98
52686,2281,28592,207,99931,35.00,-7.22,-5.01
52708,2675,28080,199,99931,35.00,-7.24,-5.00
52730,2378,28592,181,99931,35.00,-7.24,-4.94
52752,2375,28592,167,99931,35.00,-7.25,-4.99
52774,2001,28592,155,99931,35.00,-7.24,-4.98
52796,2205,28592,165,99931,35.00,-7.21,-4.99
52818,1598,28592,159,99931,35.00,-7.24,-4.98
52840,1461,28592,171,99931,35.00,-7.23,-4.97
52881,1545,28592,187,99931,35.00,-7.22,-4.98
52903,1725,28592,200,99931,35.00,-7.22,-4.96
52925,1545,28592,184,99931,35.00,-7.21,-4.99
52947,1525,28592,181,99931,35.00,-7.22,-4.99
52969,1311,28592,166,99931,35.00,-7.25,-4.97
52991,1581,28592,154,99931,35.00,-7.23,-5.02
53374,1592,28784,146,99931,34.78,-7.21,-4.98
53402,967,28592,90,99931,35.00,-7.21,-4.97
53424,1489,28592,135,99931,35.00,-7.24,-5.01
53446,1498,28592,149,99931,35.00,-7.21,-4.99
53468,1933,28592,142,99931,35.00,-7.27,-4.94
53490,2129,28592,138,99931,35.00,-7.25,-4.97
53512,2860,28592,135,99931,35.00,-7.25,-4.98
53534,2825,28592,136,99931,35.00,-7.20,-4.98
53556,2227,28592,125,99931,35.00,-7.24,-5.02
53578,2441,28592,138,99966,35.00,-7.18,-5.00
53600,2717,28592,153,99960,35.00,-7.23,-4.98
53622,2645,28592,171,99960,35.00,-7.26,-4.97
53663,2309,28592,175,99960,35.00,-7.22,-4.98
53685,2936,28080,202,99960,35.00,-7.20,-5.00
53707,2991,28592,215,99960,35.00,-7.22,-4.96
53729,3119,28592,201,99960,35.00,-7.23,-4.96
53751,2877,28592,185,99960,35.00,-7.19,-4.95
53773,3341,28592,184,99960,35.00,-7.22,-5.00
53795,3144,28784,183,99960,35.00,-7.19,-4.99
53817,2693,28784,173,99960,35.00,-7.24,-4.98
53839,2297,28592,173,99960,35.00,-7.26,-4.96
53861,2119,28592,175,99960,35.00,-7.25,-4.98
53903,1928,28592,189,99960,35.00,-7.21,-5.00
53925,1738,28592,183,99960,35.00,-7.20,-4.97
53947,1643,28784,189,99960,35.00,-7.22,-4.97
53969,1869,28784,185,99960,35.00,-7.24,-4.95
53991,1655,28592,167,99960,35.00,-7.23,-4.95
54395,1421,28784,149,99960,35.80,-7.22,-4.97
54425,2100,28592,133,99960,35.00,-7.22,-5.01
54447,1865,28592,168,99960,35.00,-7.22,-4.97
54469,2059,28592,172,99960,35.00,-7.22,-4.98
54491,2523,28784,167,99960,35.00,-7.22,-4.97
54513,1977,28784,151,99960,35.00,-7.26,-4.98
54535,2405,28784,155,99960,35.00,-7.23,-4.99
54557,2261,28592,153,99960,35.00,-7.19,-4.99
54579,1939,28784,140,99960,35.00,-7.25,-5.01
54601,1519,28784,141,99960,35.00,-7.23,-4.98
54623,1629,28784,151,99960,35.00,-7.22,-4.95
54665,1655,28784,169,99960,35.00,-7.20,-4.99
54687,1717,28592,169,99960,35.00,-7.26,-4.96
54709,1635,28592,167,99960,35.00,-7.22,-4.99
54731,1706,28592,163,99960,35.00,-7.22,-4.98
54753,1813,28592,147,99960,35.00,-7.25,-4.97
54775,1907,28592,135,99960,35.00,-7.25,-5.01
54797,1887,28784,137,99960,35.00,-7.22,-4.94
54819,1791,28784,133,99960,35.00,-7.28,-4.95
54841,1935,28784,143,99960,35.00,-7.26,-4.97
54863,1523,28784,147,99960,35.00,-7.24,-4.97
54906,1311,28784,153,99960,35.00,-7.21,-5.00
54928,1887,28784,181,99960,35.00,-7.25,-4.96
54950,1965,28784,181,99960,35.00,-7.24,-4.95
54972,2129,28784,173,99960,35.00,-7.24,-4.95
54994,2076,28784,165,99960,35.00,-7.25,-4.99
55416,2587,28784,159,99960,35.71,-7.23,-5.01
55447,1379,28592,115,99960,35.00,-7.23,-4.99
55469,1177,28592,146,99960,35.00,-7.20,-4.97
55491,1315,28592,147,99960,35.00,-7.26,-4.97
55513,1213,28592,131,99960,35.00,-7.23,-4.98
55535,1425,28784,127,99960,35.00,-7.22,-4.96
55557,1362,28784,109,99960,35.00,-7.20,-4.95
55579,1673,28784,119,99960,35.00,-7.26,-4.97
55601,1845,28784,125,99960,35.00,-7.23,-5.01
55623,1973,28784,149,99960,35.00,-7.26,-5.00
55645,2121,28784,157,99960,35.00,-7.27,-5.01
55687,2195,28784,175,99960,35.00,-7.24,-4.96
55709,2430,28784,186,99960,35.00,-7.22,-5.00
55731,2680,28784,201,99960,35.00,-7.17,-4.96
55753,2405,28784,184,99960,35.00,-7.22,-5.01
55775,2811,28784,180,99960,35.00,-7.23,-5.01
55797,3091,28784,173,99960,35.00,-7.27,-5.00
55819,2343,28784,157,99960,35.00,-7.20,-4.96
55841,2138,28784,155,99960,35.00,-7.19,-4.95
55863,2602,28784,175,99960,35.00,-7.23,-5.04
55885,2769,28784,200,99960,35.00,-7.24,-5.01
55907,2456,28592,202,99960,35.00,-7.23,-4.94
55948,2339,28592,203,99960,35.00,-7.20,-5.00
55970,1577,28784,189,99960,35.00,-7.22,-4.98
55992,1509,28784,191,99960,35.00,-7.28,-4.98
56437,1215,28784,169,99960,36.88,-7.19,-4.98
56469,1509,28592,121,99960,35.00,-7.23,-4.96
56491,1187,28592,159,99960,35.00,-7.18,-5.00
56513,1353,28784,158,99960,35.00,-7.24,-5.00
56535,1624,28592,155,99960,35.00,-7.26,-4.96
56557,1811,28592,147,99960,35.00,-7.25,-4.95
56579,1875,28592,133,99960,35.00,-7.21,-4.95
56601,1949,28592,141,99960,35.00,-7.23,-4.97
56623,2039,28592,148,99960,35.00,-7.24,-4.99
56645,2005,28592,143,99960,35.00,-7.19,-4.95
56667,1935,28592,159,99960,35.00,-7.23,-4.96
56689,1599,28592,169,99960,35.00,-7.20,-4.95
56730,1773,28592,181,99960,35.00,-7.23,-4.99
56752,2015,28592,183,99960,35.00,-7.23,-5.03
56774,1942,28592,197,99960,35.00,-7.24,-4.96
56796,2013,28592,167,99960,35.00,-7.24,-5.00
56818,2013,28592,155,99960,35.00,-7.21,-4.99
56840,2094,28592,149,99960,35.00,-7.23,-4.99
56862,2039,28592,149,99960,35.00,-7.20,-5.00
56884,1830,28592,141,99960,35.00,-7.27,-4.98
56906,1833,28592,157,99960,35.00,-7.22,-4.95
56928,1720,28592,154,99960,35.00,-7.24,-4.98
56971,1529,28784,171,99960,35.00,-7.23,-4.96
56993,1701,28592,171,99960,35.00,-7.28,-4.97
57714,1743,28592,173,99960,35.65,-7.24,-4.94
57752,1822,28592,183,99960,35.00,-7.22,-4.95
57774,1815,28592,181,99960,35.00,-7.22,-5.00
57796,1945,28784,179,99960,35.00,-7.25,-4.99
57818,1934,28784,169,99960,35.00,-7.21,-4.96
57840,1947,28592,155,99960,35.00,-7.22,-4.98
57862,1939,28784,141,99960,35.00,-7.25,-5.04
57884,1927,28784,137,99960,35.00,-7.27,-4.97
57906,1805,28784,137,99960,35.00,-7.31,-5.00
57928,1688,28784,151,99960,35.00,-7.23,-4.99
57950,1594,28784,157,99960,35.00,-7.24,-4.96
57972,1483,28592,169,99960,35.00,-7.21,-5.00
58735,1711,28592,173,99960,35.52,-7.24,-4.96
58775,1527,28592,163,99960,35.00,-7.21,-4.97
58797,1501,28784,163,99960,35.00,-7.24,-5.00
58819,1659,28784,159,99960,35.00,-7.22,-4.98
58841,1783,28784,143,99960,35.00,-7.25,-4.96
58863,1700,29296,126,99960,35.00,-7.22,-4.96
58885,1911,28784,135,99960,35.00,-7.22,-4.99
58907,1595,28784,124,99960,35.00,-7.26,-4.97
58929,1555,28784,125,99960,35.00,-7.24,-4.93
58951,1491,28784,139,99960,35.00,-7.25,-4.99
58973,1568,28784,149,99960,35.00,-7.24,-4.97
59757,1723,28784,165,99960,35.26,-7.23,-4.96
59797,1269,28784,175,99960,35.00,-7.21,-4.99
59819,1263,28784,172,99960,35.00,-7.25,-5.02
59841,1269,28784,155,99960,35.00,-7.22,-4.97
59863,1227,28784,146,99960,35.00,-7.24,-4.97
59885,1098,28784,123,99960,35.00,-7.25,-5.01
59907,1109,28784,117,99960,35.00,-7.28,-4.98
59929,1006,28784,125,99960,35.00,-7.28,-4.99
59951,757,29296,110,99960,35.00,-7.22,-4.97
59973,665,29296,120,99960,35.00,-7.22,-4.96
59995,588,29296,131,99960,35.00,-7.26,-4.97
60523,647,29296,133,99960,35.39,-7.20,-4.97
60559,2979,29296,188,99960,35.00,-7.21,-5.01
60581,2711,28784,215,99960,35.00,-7.25,-4.96
60603,2812,28784,211,99960,35.00,-7.22,-4.96
60625,2571,29296,197,99960,35.00,-7.26,-4.98
60647,2427,28784,174,99960,35.00,-7.22,-5.00
60669,2268,29296,171,99960,35.00,-7.19,-4.96
60691,2334,29296,169,99960,35.00,-7.23,-5.00
60713,2189,29296,173,99960,35.00,-7.22,-4.96
60735,1957,29296,176,99960,35.00,-7.26,-4.96
60757,1829,28784,188,99960,35.00,-7.21,-4.96
60779,1789,29296,197,99960,35.00,-7.23,-4.96
60820,1776,29296,187,99960,35.00,-7.24,-4.99
60842,1769,29296,185,99960,35.00,-7.20,-4.97
60864,1747,29296,175,99960,35.00,-7.20,-4.99
60886,1573,29296,155,99960,35.00,-7.21,-4.96
60908,1491,29296,147,99960,35.00,-7.20,-5.00
60930,1458,29296,136,99960,35.00,-7.23,-4.94
60952,1322,29296,137,99960,35.00,-7.19,-4.97
60974,1181,28784,140,99960,35.00,-7.24,-4.91
60996,1197,28784,153,99960,35.00,-7.19,-4.96
61544,1368,28784,167,99960,35.03,-7.20,-4.99
61582,955,28784,104,99960,35.00,-7.24,-4.97
61604,1321,29296,121,99960,35.00,-7.23,-4.96
61626,1671,29296,118,99960,35.00,-7.25,-4.99
61648,1966,29296,111,99960,35.00,-7.24,-4.96
61670,2073,29296,114,99960,35.00,-7.24,-4.96
61692,2212,29296,117,99960,35.00,-7.22,-5.00
61714,2408,29296,133,99960,35.00,-7.21,-4.99
61736,2542,29296,143,99960,35.00,-7.26,-4.99
61758,2703,29296,168,99960,35.00,-7.22,-4.97
61780,2844,29296,183,99960,35.00,-7.27,-4.97
61822,3103,29296,198,99960,35.00,-7.22,-4.97
61844,3241,29296,205,99960,35.00,-7.23,-4.99
61866,3231,29296,204,99960,35.00,-7.24,-5.00
61888,3167,29296,189,99960,35.00,-7.24,-4.96
61910,3239,29296,175,99960,35.00,-7.18,-4.94
61932,3037,29296,173,99960,35.00,-7.25,-4.96
61954,2759,29296,167,99960,35.00,-7.19,-5.01
61976,2536,29296,182,99960,35.00,-7.21,-5.00
61998,2356,29296,184,99960,35.00,-7.25,-4.96
62020,2323,29296,205,99960,35.00,-7.25,-4.97
62042,2234,29296,204,99960,35.00,-7.21,-4.95
62083,2119,29296,201,99960,35.00,-7.25,-4.98
62105,1779,29296,179,99960,35.00,-7.24,-4.96
62127,1605,29296,165,99960,35.00,-7.29,-5.00
62149,1443,29296,141,99960,35.00,-7.22,-4.97
62171,1327,29296,134,99960,35.00,-7.24,-4.95
62193,1207,29296,119,99960,35.00,-7.23,-4.97
62215,1107,29296,121,99960,35.00,-7.22,-4.93
62237,893,29296,126,99960,35.00,-7.22,-4.97
62259,891,29296,137,99960,35.00,-7.24,-4.99
62281,729,29296,141,99960,35.00,-7.24,-4.99
62323,827,29296,143,99960,35.00,-7.26,-5.00
62345,1259,29296,141,99960,35.00,-7.25,-4.97
62367,1362,29296,127,99960,35.00,-7.21,-4.96
62389,1319,29296,121,99960,35.00,-7.24,-5.00
62411,1416,29296,107,99960,35.00,-7.21,-5.01
62433,1495,29296,105,99960,35.00,-7.23,-4.99
62455,1611,28784,117,99960,35.00,-7.25,-4.95
62477,1581,29296,125,99960,35.00,-7.26,-5.01
62499,1735,28784,139,99960,35.00,-7.25,-5.01
62521,1847,29296,159,99960,35.00,-7.23,-4.98
62543,1957,29296,169,99960,35.00,-7.24,-4.96
62584,2291,29296,175,99960,35.00,-7.20,-4.94
62606,2341,29296,184,99960,35.00,-7.23,-4.95
62628,2445,29296,172,99960,35.00,-7.21,-4.97
62650,2505,29296,169,99960,35.00,-7.24,-4.96
62672,2524,29296,164,99960,35.00,-7.24,-4.99
62694,2532,29296,159,99960,35.00,-7.24,-4.96
62716,2521,29296,171,99960,35.00,-7.22,-4.97
62738,2495,29296,183,99960,35.00,-7.23,-4.97
62760,2415,29296,191,99960,35.00,-7.26,-4.98
62782,2079,29296,199,99960,35.00,-7.27,-5.04
62825,2107,29296,200,99960,35.00,-7.25,-4.99
62847,2303,29296,191,99960,35.00,-7.20,-4.97
62869,2231,29296,183,99960,35.00,-7.22,-5.00
62891,2151,29296,167,99960,35.00,-7.22,-4.99
62913,2107,29296,164,99960,35.00,-7.22,-5.00
62935,1965,29296,163,99960,35.00,-7.22,-4.95
62957,1851,29296,157,99960,35.00,-7.23,-4.96
62979,1548,29296,156,99960,35.00,-7.22,-5.00
63585,1207,29296,157,99960,35.78,-7.19,-5.02
63627,1129,28784,139,99960,35.00,-7.24,-4.99
63649,1029,28784,124,99960,35.00,-7.22,-4.96
63671,1133,29296,115,99960,35.00,-7.21,-4.98
63693,1300,29296,104,99960,35.00,-7.25,-4.96
63715,1305,29296,101,99960,35.00,-7.24,-5.01
63737,1343,29296,105,99960,35.00,-7.24,-4.97
63759,1318,29296,112,99960,35.00,-7.25,-5.00
63781,1448,29296,124,99960,35.00,-7.25,-4.95
63803,1639,29296,145,99960,35.00,-7.24,-4.96
63825,1759,29296,155,99960,35.00,-7.24,-5.00
63867,2006,29296,163,99960,35.00,-7.23,-5.02
63889,2409,28784,166,99960,35.00,-7.21,-4.99
63911,2611,29296,163,99960,35.00,-7.21,-4.96
63933,2841,29296,159,99960,35.00,-7.26,-4.95
63955,3003,29296,167,99960,35.00,-7.23,-4.99
63977,2867,29296,165,99960,35.00,-7.27,-5.02
63999,2839,29296,174,99960,35.00,-7.28,-4.98
64021,2718,29296,185,99960,35.00,-7.25,-4.98
64043,2549,29296,197,99960,35.00,-7.22,-4.99
64065,2421,28784,203,99960,35.00,-7.21,-4.96
64087,2461,29296,215,99960,35.00,-7.24,-5.00
64128,2515,29296,207,99960,35.00,-7.24,-4.96
64150,2264,28784,187,99960,35.00,-7.24,-4.99
64172,2215,28784,188,99960,35.00,-7.23,-4.97
64194,2069,29296,155,99960,35.00,-7.24,-4.96
64216,1938,29296,153,99960,35.00,-7.21,-4.99
64238,1739,29296,147,99960,35.00,-7.22,-4.98
64260,1541,29296,149,99960,35.00,-7.21,-4.97
64282,1315,29296,151,99960,35.00,-7.23,-4.99
64304,1099,29296,155,99960,35.00,-7.24,-4.94
64326,983,28784,155,99960,35.00,-7.27,-4.96
64368,975,29296,155,99960,35.00,-7.25,-5.01
64390,1101,29296,139,99960,35.00,-7.25,-4.99
64412,1078,29296,121,99960,35.00,-7.22,-4.96
64434,1080,28784,111,99960,35.00,-7.25,-4.95
64456,1078,28784,105,99960,35.00,-7.26,-5.00
64478,904,28784,99,99960,35.00,-7.23,-5.01
64500,968,29296,107,99960,35.00,-7.25,-5.00
64522,1079,29296,119,99960,35.00,-7.22,-5.00
64544,1077,29296,131,99960,35.00,-7.23,-4.98
64566,1241,29296,149,99960,35.00,-7.22,-5.02
64588,1337,29296,151,99960,35.00,-7.24,-4.98
64629,1469,29296,139,99960,35.00,-7.24,-4.97
64651,1885,29296,141,99960,35.00,-7.17,-4.97
64673,2024,29296,133,99960,35.00,-7.26,-4.97
64695,2133,29296,133,99960,35.00,-7.25,-4.99
64717,2664,29296,143,99960,35.00,-7.21,-5.01
64739,2318,29296,137,99960,35.00,-7.22,-4.96
64761,2324,29296,151,99960,35.00,-7.22,-4.95
64783,2249,28784,159,99960,35.00,-7.16,-5.00
64805,2355,28784,173,99960,35.00,-7.26,-4.96
64827,2331,28784,182,99960,35.00,-7.25,-4.97
64870,2577,28784,196,99960,35.00,-7.24,-4.98
64892,2728,28784,183,99960,35.00,-7.19,-4.98
64914,2654,28784,173,99960,35.00,-7.22,-4.94
64936,2686,28784,167,99960,35.00,-7.23,-4.95
64958,2458,28784,157,99960,35.00,-7.23,-4.99
64980,2363,28784,159,99960,35.00,-7.25,-5.01
65372,2163,28784,167,99960,35.64,-7.25,-4.97
65411,1964,29296,152,99960,35.00,-7.21,-5.00
65433,1705,29296,163,99960,35.00,-7.20,-4.96
65455,1413,29296,139,99960,35.00,-7.24,-4.97
65477,1719,29296,133,99960,35.00,-7.21,-4.93
65499,2129,29296,137,99960,35.00,-7.19,-4.97
65521,2187,29296,141,99960,35.00,-7.25,-4.96
65543,1897,29296,153,99960,35.00,-7.22,-4.99
65565,1658,29296,154,99960,35.00,-7.21,-4.97
65587,1705,29296,169,99960,35.00,-7.25,-4.97
65609,1803,29296,175,99960,35.00,-7.26,-5.02
65652,1853,29296,173,99960,35.00,-7.24,-5.00
65674,1917,29296,155,99960,35.00,-7.25,-4.97
65696,1901,29296,151,99960,35.00,-7.24,-4.99
65718,1813,29296,137,99960,35.00,-7.23,-4.93
65740,1749,29296,133,99960,35.00,-7.22,-4.97
65762,1681,29296,135,99960,35.00,-7.27,-4.97
65784,1587,29296,141,99960,35.00,-7.23,-5.04
65806,1575,29296,151,99960,35.00,-7.18,-4.99
65828,1583,30064,169,99960,35.00,-7.22,-5.00
65850,1612,29296,172,99960,35.00,-7.22,-5.00
65892,1700,29296,171,99960,35.00,-7.24,-4.99
65914,1834,29296,155,99960,35.00,-7.24,-4.97
65936,1901,29296,149,99960,35.00,-7.26,-4.98
65958,1959,30064,141,99960,35.00,-7.22,-4.93
65980,1805,29296,135,99960,35.00,-7.24,-4.98
66393,1796,30064,139,99960,36.52,-7.21,-4.98
66433,1855,29296,164,99960,35.00,-7.26,-4.98
66455,1675,29296,155,99960,35.00,-7.27,-5.00
66477,1612,30064,151,99960,35.00,-7.23,-4.98
66499,1607,30064,137,99960,35.00,-7.22,-4.98
66521,1499,30064,126,99960,35.00,-7.24,-4.96
66543,1591,30064,134,99960,35.00,-7.24,-4.98
66565,1541,30064,147,99960,35.00,-7.22,-4.97
66587,1469,30064,151,99960,35.00,-7.19,-4.98
66609,1355,30064,167,99960,35.00,-7.23,-4.97
66631,1396,30064,172,99960,35.00,-7.20,-4.92
66653,1620,30064,167,99960,35.00,-7.23,-4.99
66694,1749,30064,159,99960,35.00,-7.24,-5.01
66716,1909,30064,163,99960,35.00,-7.24,-4.98
66738,1932,30064,149,99960,35.00,-7.22,-5.00
66760,2019,30064,143,99960,35.00,-7.24,-4.97
66782,1854,30064,136,99960,35.00,-7.26,-4.93
66804,1723,30064,139,99960,35.00,-7.21,-4.98
66826,1653,30064,146,99960,35.00,-7.24,-4.99
66848,1775,30064,155,99960,35.00,-7.23,-4.94
66870,1787,29296,169,99960,35.00,-7.23,-4.99
66892,1845,29296,173,99960,35.00,-7.22,-4.97
66935,1983,29296,181,99960,35.00,-7.22,-5.00
66957,2005,29296,157,99960,35.00,-7.24,-5.00
66979,2063,30064,149,99960,35.00,-7.23,-4.96
67414,1999,30064,139,99960,36.43,-7.25,-4.99
67456,1607,30064,149,99960,35.00,-7.26,-4.99
67478,1635,30064,139,99960,35.00,-7.21,-5.00
67500,1635,30064,123,99960,35.00,-7.20,-4.98
67522,1771,30064,121,99960,35.00,-7.24,-4.97
67544,1651,30064,119,99960,35.00,-7.24,-5.01
67566,1573,30064,121,99960,35.00,-7.22,-4.97
67588,1593,30064,137,99960,35.00,-7.21,-4.99
67610,1555,30064,147,99960,35.00,-7.24,-4.96
67632,1691,30064,158,99960,35.00,-7.24,-4.96
67654,1821,30064,159,99960,35.00,-7.26,-4.96
67696,1878,30064,160,99960,35.00,-7.25,-4.95
67718,2063,30064,155,99960,35.00,-7.22,-4.98
67740,2125,30064,142,99960,35.00,-7.24,-5.01
67762,2109,30064,136,99960,35.00,-7.24,-4.97
67784,2175,30064,132,99960,35.00,-7.25,-4.97
67806,2080,30064,137,99960,35.00,-7.24,-5.00
67828,2009,30064,143,99960,35.00,-7.24,-4.98
67850,1915,30064,165,99960,35.00,-7.22,-4.97
67872,1933,30064,171,99960,35.00,-7.26,-5.00
67894,2028,30064,180,99960,35.00,-7.24,-5.00
67916,2100,30064,179,99960,35.00,-7.24,-4.97
67957,2135,30576,165,99960,35.00,-7.23,-5.03
67979,2143,30064,165,99960,35.00,-7.23,-5.01
68689,2217,30064,154,99960,36.03,-7.21,-4.99
68719,1720,30064,151,99960,35.00,-7.20,-4.98
68741,1979,30576,157,99960,35.00,-7.21,-4.94
68763,2030,30576,142,99960,35.00,-7.22,-4.94
68785,1893,30576,141,99960,35.00,-7.24,-4.98
68807,1805,30576,138,99960,35.00,-7.25,-4.94
68829,1770,30576,151,99960,35.00,-7.22,-4.97
68851,1775,30576,160,99960,35.00,-7.21,-5.00
68873,1641,30576,173,99960,35.00,-7.23,-4.96
68895,1581,30576,175,99960,35.00,-7.23,-4.96
68917,1576,30576,171,99960,35.00,-7.21,-5.00
68959,1669,30576,165,99960,35.00,-7.24,-4.98
68981,1767,30576,155,99960,35.00,-7.25,-4.97
69710,1739,30576,139,99960,36.07,-7.23,-4.97
69741,1719,30576,145,99960,35.00,-7.22,-4.95
69763,1932,30576,153,99960,35.00,-7.24,-4.99
69785,1965,30576,136,99960,35.00,-7.24,-4.94
69807,1836,30576,125,99960,35.00,-7.23,-5.00
69829,1781,30576,119,99960,35.00,-7.23,-4.94
69851,1695,30576,139,99960,35.00,-7.24,-4.96
69873,1629,30576,141,99960,35.00,-7.24,-4.92
69895,1592,30576,160,99960,35.00,-7.24,-4.96
69917,1604,30576,157,99960,35.00,-7.19,-4.96
69939,1705,30576,168,99960,35.00,-7.22,-4.99
69961,1785,30576,154,99960,35.00,-7.24,-4.91
70731,1875,30576,154,99960,35.54,-7.23,-4.98
70764,2004,30576,142,99960,35.00,-7.23,-4.97
70786,2219,30576,140,99960,35.00,-7.20,-4.97
70808,2265,30576,142,99960,35.00,-7.21,-4.97
70830,2235,30576,139,99960,35.00,-7.19,-4.96
70852,2125,30576,147,99960,35.00,-7.19,-4.99
70874,2052,30576,155,99960,35.00,-7.22,-4.94
70896,2014,30576,166,99960,35.00,-7.26,-4.97
70918,1926,30576,177,99960,35.00,-7.22,-4.99
70940,2010,30576,185,99960,35.00,-7.22,-4.96
70962,2131,30576,180,99960,35.00,-7.23,-5.02
71504,2260,30576,173,99960,35.02,-7.23,-4.97
71546,1587,30576,137,99960,35.00,-7.25,-4.95
71568,1747,30576,120,99960,35.00,-7.26,-5.00
71590,1608,30576,111,99960,35.00,-7.24,-4.94
71612,1607,30960,117,99960,35.00,-7.19,-4.96
71634,1546,30960,118,99960,35.00,-7.26,-5.01
71656,1509,30960,135,99960,35.00,-7.27,-4.99
71678,1525,30960,148,99960,35.00,-7.21,-4.96
71700,1581,30960,151,99960,35.00,-7.25,-4.99
71722,1707,30960,159,99960,35.00,-7.21,-4.96
71744,1879,30960,156,99960,35.00,-7.23,-5.00
71786,1944,30960,147,99960,35.00,-7.24,-4.97
71808,1997,30576,136,99960,35.00,-7.22,-4.98
71830,2013,30960,125,99960,35.00,-7.24,-4.96
71852,2040,30960,133,99960,35.00,-7.25,-4.96
71874,2013,30960,125,99960,35.00,-7.19,-4.99
71896,1897,30960,142,99960,35.00,-7.25,-5.00
71918,1883,30960,155,99960,35.00,-7.23,-4.97
71940,1915,30960,172,99960,35.00,-7.26,-4.96
71962,2038,30960,173,99960,35.00,-7.26,-4.95
71984,2084,30960,171,99960,35.00,-7.23,-4.99
72517,2093,30960,157,99960,35.41,-7.24,-4.96
72548,1437,30960,146,99960,35.00,-7.24,-4.96
72570,1800,30960,136,99960,35.00,-7.26,-4.98
72592,1813,30960,125,99960,35.00,-7.20,-5.00
72614,1735,30960,123,99960,35.00,-7.23,-4.97
72636,1635,30960,133,99960,35.00,-7.22,-5.00
72658,1517,31472,143,99960,35.00,-7.23,-4.96
72680,1581,30960,155,99960,35.00,-7.23,-4.99
72702,1594,30960,155,99960,35.00,-7.23,-4.99
72724,1746,31472,169,99960,35.00,-7.25,-4.97
72746,1737,31472,155,99960,35.00,-7.24,-4.99
72768,1831,30960,151,99960,35.00,-7.21,-4.98
72809,1916,30960,147,99960,35.00,-7.19,-4.97
72831,1895,31472,135,99960,35.00,-7.23,-4.97
72853,1853,31472,125,99960,35.00,-7.23,-4.95
72875,1817,31472,120,99960,35.00,-7.23,-4.99
72897,1773,31472,147,99960,35.00,-7.23,-5.00
72919,1915,31472,149,99960,35.00,-7.20,-4.97
72941,1769,31472,169,99960,35.00,-7.18,-4.96
72963,1691,31472,165,99960,35.00,-7.23,-4.91
72985,1815,31472,169,99960,35.00,-7.22,-4.94
73537,1949,31472,165,99960,35.23,-7.24,-4.97
73571,1781,30960,142,99960,35.00,-7.18,-4.97
73593,1875,30960,134,99960,35.00,-7.24,-4.99
73615,1907,30960,133,99960,35.00,-7.25,-4.96
73637,1854,31472,133,99960,35.00,-7.29,-4.95
73659,1771,31472,152,99960,35.00,-7.23,-4.99
73681,1788,31472,155,99960,35.00,-7.20,-4.99
73703,1754,31472,167,99960,35.00,-7.21,-4.98
73725,1629,31472,166,99960,35.00,-7.24,-4.94
73747,1641,30960,164,99960,35.00,-7.24,-4.96
73769,1759,30960,152,99960,35.00,-7.23,-4.96
73811,1855,30960,149,99960,35.00,-7.24,-4.93
73833,1767,30960,123,99960,35.00,-7.21,-5.00
73855,1629,30960,120,99960,35.00,-7.21,-4.98
73877,1515,30960,119,99960,35.00,-7.24,-4.98
73899,1573,30960,125,99960,35.00,-7.21,-4.97
73921,1453,30960,138,99960,35.00,-7.24,-4.96
73943,1449,31472,147,99960,35.00,-7.26,-4.96
73965,1481,30960,155,99960,35.00,-7.21,-5.01
73987,1605,30960,158,99960,35.00,-7.25,-4.97
74557,1738,30960,155,99960,34.70,-7.23,-4.96
74593,1977,30960,143,99960,35.00,-7.22,-4.90
74615,1942,30960,146,99960,35.00,-7.24,-4.97
74637,1867,30960,139,99960,35.00,-7.26,-4.99
74659,1723,30960,145,99960,35.00,-7.23,-4.99
74681,1647,30960,147,99960,35.00,-7.20,-4.97
74703,1387,30960,147,99960,35.00,-7.21,-4.96
74725,1317,30960,159,99960,35.00,-7.24,-4.96
74747,1429,30960,163,99960,35.00,-7.21,-4.96
74769,1513,30960,167,99960,35.00,-7.17,-5.01
74791,1541,30960,153,99960,35.00,-7.21,-4.98
74813,1471,30960,139,99960,35.00,-7.23,-4.98
74854,1445,30960,124,99960,35.00,-7.25,-4.96
74876,1273,30576,115,99960,35.00,-7.27,-5.03
74898,1481,30960,111,99960,35.00,-7.26,-5.00
74920,1395,30960,111,99960,35.00,-7.22,-5.01
74942,1245,30960,123,99960,35.00,-7.23,-4.97
74964,1221,30960,127,99960,35.00,-7.23,-5.00
74986,1279,30960,145,99960,35.00,-7.21,-4.96
75578,1421,30960,151,99960,35.33,-7.19,-4.96
75616,1966,30960,132,99960,35.00,-7.27,-4.95
75638,2031,30576,137,99960,35.00,-7.23,-4.98
75660,1971,30960,135,99960,35.00,-7.19,-5.01
75682,1980,30960,139,99960,35.00,-7.21,-4.98
75704,1864,30960,153,99960,35.00,-7.22,-4.97
75726,1627,30960,159,99960,35.00,-7.24,-5.02
75748,1559,30960,173,99960,35.00,-7.21,-4.95
75770,1617,30960,169,99960,35.00,-7.23,-5.03
75792,1701,30960,167,99960,35.00,-7.24,-5.01
75814,1703,30960,149,99960,35.00,-7.22,-5.00
75856,1773,30960,146,99960,35.00,-7.22,-4.96
75878,1807,30960,125,99960,35.00,-7.20,-4.99
75900,1725,30960,123,99960,35.00,-7.21,-4.96
75922,1641,30960,123,99960,35.00,-7.19,-4.99
75944,1595,30960,136,99960,35.00,-7.23,-4.91
75966,1467,30960,155,99960,35.00,-7.27,-5.00
75988,1511,30960,159,99960,35.00,-7.24,-4.97
76350,1571,30960,167,99960,35.05,-7.19,-4.97
76378,1821,30960,169,99960,35.00,-7.21,-4.99
76400,1916,30576,135,99960,35.00,-7.22,-4.94
76422,2207,30960,135,99960,35.00,-7.27,-4.98
76444,1879,30960,135,99960,35.00,-7.20,-4.95
76466,1772,30960,147,99960,35.00,-7.23,-4.97
76488,1740,30960,163,99960,35.00,-7.22,-4.97
76510,1769,30960,165,99960,35.00,-7.23,-4.95
76532,1879,30960,172,99960,35.00,-7.25,-4.94
76554,1997,30960,171,99960,35.00,-7.17,-4.95
76576,1998,30960,155,99960,35.00,-7.22,-4.98
76618,1955,30960,149,99960,35.00,-7.20,-4.99
76640,2089,30960,140,99960,35.00,-7.25,-4.95
76662,2031,30960,133,99960,35.00,-7.20,-5.00
76684,1958,30960,145,99960,35.00,-7.24,-4.99
76706,1755,30960,143,99960,35.00,-7.21,-4.98
76728,1706,30960,159,99960,35.00,-7.29,-4.97
76750,1721,30960,172,99960,35.00,-7.21,-4.96
76772,1845,30960,178,99960,35.00,-7.25,-4.98
76794,1915,30960,173,99960,35.00,-7.23,-4.97
76816,1813,30960,163,99960,35.00,-7.19,-5.02
76859,1801,30960,142,99960,35.00,-7.22,-5.01
76881,2139,30960,143,99960,35.00,-7.28,-5.00
76903,1966,30960,136,99960,35.00,-7.22,-4.96
76925,1763,30960,141,99960,35.00,-7.19,-4.99
76947,1606,30960,151,99960,35.00,-7.21,-4.97
76969,1559,30960,164,99960,35.00,-7.25,-4.98
76991,1558,30960,168,99960,35.00,-7.27,-4.94
77363,1687,30960,175,99960,34.67,-7.26,-4.97
77400,1463,30960,120,99960,35.00,-7.24,-5.02
77422,1321,30960,117,99960,35.00,-7.23,-4.99
77444,1215,30960,115,99960,35.00,-7.20,-5.00
77466,1149,31472,123,99960,35.00,-7.22,-4.97
77488,905,30960,125,99960,35.00,-7.23,-4.94
77510,1325,30960,147,99960,35.00,-7.21,-5.00
77532,1191,30960,150,99960,35.00,-7.23,-5.02
77554,1572,30960,163,99960,35.00,-7.24,-5.01
77576,1519,30960,146,99960,35.00,-7.24,-4.91
77598,1243,30960,131,99960,35.00,-7.23,-4.94
77640,3277,30960,156,99960,35.00,-7.23,-4.99
77662,1784,30576,127,99960,35.00,-7.25,-4.99
77684,1565,30576,112,99960,35.00,-7.26,-4.95
77706,1516,30576,117,99960,35.00,-7.23,-4.98
77728,1641,30064,135,99960,35.00,-7.19,-4.97
77750,1656,30576,143,99960,35.00,-7.23,-4.98
77772,1690,30576,159,99960,35.00,-7.21,-5.01
77794,1899,30576,167,99960,35.00,-7.22,-4.96
77816,2012,30576,169,99960,35.00,-7.20,-4.98
77838,2275,30576,157,99960,35.00,-7.25,-4.98
77860,2223,30576,154,99960,35.00,-7.23,-4.97
77901,2579,30576,157,99960,35.00,-7.23,-4.99
77923,3719,30576,211,99960,35.00,-7.25,-4.97
77945,3859,30576,209,99960,35.00,-7.24,-4.95
77967,1187,30576,145,99960,35.00,-7.23,-4.96
77989,1453,30576,140,99960,35.00,-7.25,-5.01
78383,1114,30576,141,99960,35.58,-7.23,-4.96
78422,2443,30576,153,99960,35.00,-7.23,-5.00
78444,2715,30576,169,99960,35.00,-7.23,-4.98
78466,2645,30576,169,99960,35.00,-7.24,-4.98
78488,2485,30576,172,99960,35.00,-7.22,-4.98
78510,2139,30576,167,99960,35.00,-7.21,-4.96
78532,2089,30576,183,99960,35.00,-7.24,-4.99
78554,1837,30576,183,99960,35.00,-7.19,-5.01
78576,1849,30576,183,99960,35.00,-7.26,-4.97
78598,1762,30576,167,99960,35.00,-7.22,-5.00
78620,1662,30576,157,99960,35.00,-7.25,-4.96
78642,1465,30576,134,99960,35.00,-7.19,-5.03
78683,1507,30576,137,99960,35.00,-7.24,-4.99
78705,1555,30576,139,99960,35.00,-7.23,-4.99
78727,1639,30576,145,99960,35.00,-7.21,-4.98
78749,1695,30576,153,99960,35.00,-7.24,-4.96
78771,1489,30576,163,99960,35.00,-7.22,-4.95
78793,1171,30576,169,99960,35.00,-7.25,-4.96
78815,1001,30576,165,99960,35.00,-7.24,-4.98
78837,1135,30576,165,99960,35.00,-7.23,-4.98
78859,1321,30576,165,99960,35.00,-7.26,-4.98
78881,1355,30576,143,99960,35.00,-7.25,-5.01
78923,1209,30576,119,99960,35.00,-7.24,-4.99
78945,1115,30576,108,99960,35.00,-7.26,-4.98
78967,1159,30576,100,99960,35.00,-7.21,-5.00
78989,903,30576,104,99960,35.00,-7.24,-4.97
79403,819,30576,116,99960,35.88,-7.20,-4.96
79445,2415,30576,157,99960,35.00,-7.24,-4.99
79467,2681,30576,172,99960,35.00,-7.25,-4.96
79489,2426,30960,173,99960,35.00,-7.21,-4.96
79511,2253,30960,181,99960,35.00,-7.23,-4.99
79533,1956,30576,191,99960,35.00,-7.21,-4.93
79555,1862,30960,191,99960,35.00,-7.19,-5.01
79577,1826,30960,201,99960,35.00,-7.24,-5.02
79599,1837,30576,189,99960,35.00,-7.22,-4.97
79621,1981,30960,189,99960,35.00,-7.22,-4.95
79643,2170,30960,179,99960,35.00,-7.24,-4.97
79685,2003,30960,163,99960,35.00,-7.23,-4.98
79707,874,30960,132,99960,35.00,-7.20,-4.95
79729,23,30960,98,99960,35.00,-7.24,-4.96
79751,25,30960,115,99960,35.00,-7.24,-4.93
79773,0,30960,109,99960,35.00,-7.23,-4.97
79795,779,30960,149,99960,35.00,-7.24,-5.00
79817,523,30960,137,99960,35.00,-7.22,-4.99
79839,1335,30960,153,99960,35.00,-7.24,-4.94
79861,1647,30960,151,99960,35.00,-7.25,-4.99
79883,1973,30960,152,99960,35.00,-7.24,-4.98
79905,2205,30960,157,99960,35.00,-7.24,-4.95
79946,2505,30960,179,99960,35.00,-7.21,-5.01
79968,2487,30960,155,99960,35.00,-7.21,-4.95
79990,1817,30960,119,99960,35.00,-7.24,-4.97
80424,1339,30960,115,99960,35.14,-7.24,-4.98
80453,1213,30064,81,99960,35.00,-7.22,-5.02
80475,618,30576,93,99960,35.00,-7.24,-4.97
80497,2195,30576,145,99960,35.00,-7.26,-4.96
80519,2607,30576,170,99960,35.00,-7.22,-4.96
80541,1545,30576,145,99960,35.00,-7.24,-5.00
80563,2189,30576,147,99960,35.00,-7.21,-4.98
80585,3332,30576,157,99960,35.00,-7.22,-4.97
80628,1309,30576,103,99960,35.00,-7.25,-4.98
80650,2279,30064,149,99960,35.00,-7.23,-4.96
80672,1179,30576,105,99960,35.00,-7.24,-4.98
80694,2610,30576,151,99960,35.00,-7.27,-4.98
80716,3059,30064,175,99960,35.00,-7.19,-4.96
80738,2757,30064,199,99960,35.00,-7.21,-4.98
80760,2538,30064,183,99960,35.00,-7.26,-4.96
80782,2389,30064,168,99960,35.00,-7.24,-4.94
80804,2655,30064,173,99960,35.00,-7.29,-4.97
80826,3031,30576,173,99960,35.00,-7.23,-4.96
80868,2356,30576,141,99960,35.00,-7.23,-5.00
80890,2119,30064,143,99960,35.00,-7.20,-4.96
80912,3145,30064,175,99960,35.00,-7.21,-4.99
80934,2603,29296,183,99960,35.00,-7.25,-4.99
80956,3705,28592,211,99960,35.00,-7.26,-4.99
80978,440,27312,157,99960,35.00,-7.21,-4.97
81699,2535,26416,185,99960,35.38,-7.20,-4.97
81730,2055,28784,163,99960,35.00,-7.23,-5.00
81752,1973,28784,136,99960,35.00,-7.23,-5.00
81774,3165,28784,168,99960,35.00,-7.26,-4.98
81796,2806,28784,187,99960,35.00,-7.26,-4.95
81818,3037,28592,190,99960,35.00,-7.24,-5.00
81840,2379,28784,201,99960,35.00,-7.19,-4.99
81862,2509,28784,213,99960,35.00,-7.19,-5.01
81884,1901,28784,197,99960,35.00,-7.24,-4.96
81906,2315,29296,209,99960,35.00,-7.24,-4.98
81928,2791,29296,207,99960,35.00,-7.21,-4.99
81950,2955,29296,203,99960,35.00,-7.22,-4.96
81991,2439,29296,187,99960,35.00,-7.25,-4.97
82719,1977,29296,157,99960,35.14,-7.24,-4.97
82753,1229,30960,187,99960,35.00,-7.25,-4.95
82775,1465,30960,151,99960,35.00,-7.25,-4.95
82797,1023,30960,153,99960,35.00,-7.22,-4.99
82819,1341,30960,169,99960,35.00,-7.19,-4.95
82841,1176,30960,179,99960,35.00,-7.24,-4.99
82863,1236,30960,181,99960,35.00,-7.22,-4.97
82885,1443,30960,197,99960,35.00,-7.21,-4.99
82907,1385,30960,189,99960,35.00,-7.22,-4.98
82929,1297,30960,171,99960,35.00,-7.21,-4.96
82951,1305,30960,159,99960,35.00,-7.23,-4.98
82994,1275,30960,141,99960,35.00,-7.25,-4.98
83740,957,31472,127,99960,34.73,-7.23,-4.98
83775,2991,32240,203,99960,35.00,-7.20,-4.94
83797,2725,32752,171,99960,35.00,-7.22,-4.98
83819,2847,32752,181,99960,35.00,-7.24,-4.98
83841,2937,32752,219,99960,35.00,-7.24,-4.96
83863,2595,32240,207,99960,35.00,-7.24,-4.97
83885,2239,32240,205,99960,35.00,-7.25,-4.98
83907,2087,32752,205,99960,35.00,-7.22,-4.96
83929,1917,32240,201,99960,35.00,-7.23,-4.95
83951,1971,32752,182,99960,35.00,-7.22,-5.00
83973,1945,32752,167,99960,35.00,-7.23,-4.96
83995,1771,32752,149,99960,35.00,-7.22,-4.99
84036,1555,32752,141,99960,35.00,-7.20,-4.95
84058,1587,32752,139,99960,35.00,-7.21,-4.96
84080,1508,32752,154,99960,35.00,-7.24,-4.98
84102,1273,32752,149,99960,35.00,-7.21,-4.92
84124,1021,32752,167,99960,35.00,-7.27,-4.98
84146,1087,32752,163,99960,35.00,-7.24,-4.96
84168,1407,32752,175,99960,35.00,-7.20,-4.96
84190,1215,32752,158,99960,35.00,-7.24,-4.97
84212,1115,32752,147,99960,35.00,-7.19,-4.94
84234,1109,32752,117,99960,35.00,-7.26,-4.96
84277,1191,32752,111,99960,35.00,-7.22,-4.99
84299,1391,32752,115,99960,35.00,-7.21,-5.00
84321,688,32752,125,99960,35.00,-7.19,-4.95
84343,794,32752,126,99960,35.00,-7.25,-4.94
84365,1485,32240,155,99960,35.00,-7.24,-4.96
84387,1809,32240,167,99960,35.00,-7.22,-4.96
84409,1719,32752,160,99960,35.00,-7.20,-4.98
84431,1523,32752,151,99960,35.00,-7.23,-5.01
84453,1779,32752,137,99960,35.00,-7.26,-5.00
84475,1867,32240,136,99960,35.00,-7.25,-4.96
84517,2141,32752,137,99960,35.00,-7.26,-4.98
84539,1827,32752,133,99960,35.00,-7.26,-4.99
84561,2137,32752,151,99960,35.00,-7.23,-4.96
84583,1691,32752,155,99960,35.00,-7.23,-4.94
84605,1341,32752,158,99960,35.00,-7.24,-4.98
84627,1765,32752,169,99960,35.00,-7.25,-4.97
84649,2285,32752,191,99960,35.00,-7.24,-4.96
84671,2225,32752,186,99960,35.00,-7.21,-4.96
84693,2067,32752,181,99960,35.00,-7.25,-4.98
84715,2728,32752,171,99960,35.00,-7.24,-4.98
84737,2698,32752,181,99960,35.00,-7.21,-4.98
84778,2207,32752,165,99960,35.00,-7.20,-4.97
84800,2519,32752,173,99960,35.00,-7.20,-4.98
84822,2303,32240,187,99960,35.00,-7.26,-4.96
84844,2051,32240,184,99960,35.00,-7.19,-4.97
84866,1893,32240,187,99960,35.00,-7.21,-5.01
84888,1783,32240,189,99960,35.00,-7.21,-4.98
84910,2022,32240,199,99960,35.00,-7.19,-4.95
84932,1983,32240,173,99960,35.00,-7.22,-4.96
84954,1835,32240,158,99960,35.00,-7.25,-4.97
84976,1587,32240,133,99960,35.00,-7.26,-4.99
85525,1439,32240,125,99960,34.65,-7.24,-5.00
85560,1657,32240,148,99960,35.00,-7.21,-4.96
85582,1797,32240,121,99960,35.00,-7.25,-5.01
85604,1619,32752,125,99960,35.00,-7.25,-4.97
85626,1519,32240,147,99960,35.00,-7.23,-4.97
85648,1979,32240,184,99960,35.00,-7.25,-5.01
85670,2607,32240,229,99960,35.00,-7.23,-4.97
85692,3493,32240,267,99960,35.00,-7.26,-4.99
85714,3859,32240,270,99960,35.00,-7.21,-4.97
85736,3833,32240,223,99960,35.00,-7.26,-5.02
85758,2725,32240,157,99960,35.00,-7.24,-4.95
85800,2173,32240,140,99960,35.00,-7.25,-5.02
85822,1973,32240,137,99960,35.00,-7.21,-4.97
85844,1723,32240,136,99960,35.00,-7.23,-4.97
85866,1565,32752,148,99960,35.00,-7.20,-5.00
85888,1589,32240,165,99960,35.00,-7.24,-4.99
85910,1702,32240,181,99960,35.00,-7.25,-5.02
85932,1846,32240,189,99960,35.00,-7.27,-4.95
85954,1963,32240,174,99960,35.00,-7.23,-5.01
85976,1917,32752,167,99960,35.00,-7.23,-4.96
85998,2079,32752,158,99960,35.00,-7.25,-4.95
86020,2076,32752,157,99960,35.00,-7.22,-4.96
86061,2024,32240,138,99960,35.00,-7.22,-4.98
86083,1261,32240,105,99960,35.00,-7.21,-4.95
86105,1032,32752,109,99960,35.00,-7.22,-5.01
86127,1193,32240,127,99960,35.00,-7.22,-4.99
86149,1299,32240,149,99960,35.00,-7.21,-4.98
86171,1365,32240,159,99960,35.00,-7.22,-5.00
86193,1515,32240,157,99960,35.00,-7.25,-5.01
86215,1614,32240,141,99960,35.00,-7.23,-5.00
86237,1458,32752,117,99960,35.00,-7.24,-4.98
86259,1169,32240,93,99960,35.00,-7.25,-4.96
86302,996,32752,93,99960,35.00,-7.21,-4.96
86324,1399,32240,117,99960,35.00,-7.24,-5.00
86346,1723,32752,147,99960,35.00,-7.25,-4.94
86368,1981,32752,167,99960,35.00,-7.22,-4.97
86390,1975,32752,178,99960,35.00,-7.26,-4.99
86412,1934,32240,183,99960,35.00,-7.23,-4.97
86434,1947,32240,179,99960,35.00,-7.22,-5.03
86456,2387,32752,184,99960,35.00,-7.22,-5.01
86478,2583,32752,178,99960,35.00,-7.23,-4.94
86500,2421,32752,167,99960,35.00,-7.22,-4.96
86542,2341,32752,172,99960,35.00,-7.23,-4.96
86564,2443,32752,169,99960,35.00,-7.21,-4.93
86586,1899,32752,156,99960,35.00,-7.25,-4.99
86608,1779,32752,165,99960,35.00,-7.19,-5.01
86630,1774,32752,175,99960,35.00,-7.22,-5.02
86652,2003,32752,200,99960,35.00,-7.23,-4.98
86674,2357,32752,200,99960,35.00,-7.24,-4.96
86696,2345,32752,191,99960,35.00,-7.28,-4.99
86718,2325,32752,179,99960,35.00,-7.22,-4.97
86740,2359,32752,163,99960,35.00,-7.21,-4.98
86762,1946,32752,151,99960,35.00,-7.21,-4.93
86803,1769,32240,139,99960,35.00,-7.22,-4.99
86825,1559,32240,135,99960,35.00,-7.20,-4.97
86847,1581,32240,157,99960,35.00,-7.26,-5.00
86869,1449,32240,154,99960,35.00,-7.26,-4.99
86891,1421,32240,175,99960,35.00,-7.28,-4.94
86913,1421,32240,169,99960,35.00,-7.23,-4.98
86935,1563,32240,172,99960,35.00,-7.24,-4.97
86957,1655,31472,157,99960,35.00,-7.23,-4.99
86979,1589,31472,151,99960,35.00,-7.25,-4.96
87565,1427,31472,125,99960,35.30,-7.25,-4.95
87605,1959,31472,133,99960,35.00,-7.20,-4.97
87627,2025,32240,135,99960,35.00,-7.28,-4.97
87649,1662,32240,135,99960,35.00,-7.19,-4.99
87671,1919,32240,151,99960,35.00,-7.23,-5.00
87693,2263,32240,169,99960,35.00,-7.19,-4.99
87715,2137,32240,175,99960,35.00,-7.25,-4.99
87737,2125,32240,171,99960,35.00,-7.25,-4.97
87759,2156,32240,153,99960,35.00,-7.23,-4.99
87781,1884,32240,133,99960,35.00,-7.23,-5.01
87803,1783,32240,116,99960,35.00,-7.23,-4.95
87845,1689,32240,110,99960,35.00,-7.22,-4.96
87867,1279,32240,102,99960,35.00,-7.22,-4.99
87889,1389,32240,119,99960,35.00,-7.26,-5.01
87911,1269,32240,131,99960,35.00,-7.25,-4.97
87933,1048,32240,139,99960,35.00,-7.25,-5.00
87955,1377,32240,147,99960,35.00,-7.23,-4.95
87977,1389,32240,149,99960,35.00,-7.23,-4.97
87999,1589,32240,143,99960,35.00,-7.22,-4.99
88021,1871,32240,135,99960,35.00,-7.25,-4.96
88043,1917,32240,127,99960,35.00,-7.22,-4.96
88065,1965,32240,125,99960,35.00,-7.26,-4.99
88106,2100,32240,133,99960,35.00,-7.24,-4.98
88128,2121,32240,142,99960,35.00,-7.24,-5.00
88150,2104,32240,155,99960,35.00,-7.24,-5.01
88172,2143,32240,173,99960,35.00,-7.27,-4.99
88194,2121,32240,184,99960,35.00,-7.27,-4.92
88216,2207,32240,189,99960,35.00,-7.21,-5.04
88238,2296,32240,184,99960,35.00,-7.22,-4.97
88260,2616,32240,175,99960,35.00,-7.21,-4.94
88282,3835,32240,199,99960,35.00,-7.22,-4.95
88304,2804,31472,169,99960,35.00,-7.22,-4.91
88326,1837,31472,145,99960,35.00,-7.25,-4.96
88367,1703,31472,135,99960,35.00,-7.23,-4.99
88389,1331,31472,119,99960,35.00,-7.21,-4.96
88411,1351,31472,141,99960,35.00,-7.28,-4.97
88433,1779,31472,169,99960,35.00,-7.25,-4.94
88455,2029,31472,187,99960,35.00,-7.19,-5.00
88477,1833,31472,182,99960,35.00,-6.98,-4.77
88499,2071,31472,184,99960,35.00,-7.29,-5.05
88521,1997,31472,171,99960,35.00,-7.25,-4.97
88543,2165,31472,165,99960,35.00,-7.28,-4.95
88565,2169,31472,155,99960,35.00,-7.22,-4.98
88607,1875,31472,141,99960,35.00,-7.22,-5.02
88629,1821,31472,137,99960,35.00,-7.19,-5.00
88651,1497,31472,150,99960,35.00,-7.28,-4.94
88673,1286,31472,153,99960,35.00,-7.25,-4.97
88695,1567,31472,164,99960,35.00,-7.23,-4.99
88717,1837,32240,175,99960,35.00,-7.24,-5.00
88739,1273,32240,164,99960,35.00,-7.24,-4.95
88761,1727,32240,157,99960,35.00,-7.24,-4.95
88783,1683,32240,154,99960,35.00,-7.26,-4.99
88805,2122,32240,150,99960,35.00,-7.25,-4.96
88827,2233,32240,152,99960,35.00,-7.21,-4.94
88868,1772,32752,142,99960,35.00,-7.22,-4.98
88890,1943,32240,167,99960,35.00,-7.21,-5.01
88912,2119,32752,171,99960,35.00,-7.26,-4.96
88934,2207,32752,197,99960,35.00,-7.20,-4.99
88956,1662,32240,184,99960,35.00,-7.24,-4.99
88978,1547,32240,197,99960,35.00,-7.19,-5.05
89351,2184,32752,190,99960,35.92,-7.19,-5.02
89389,1373,32752,158,99960,35.00,-7.25,-4.93
89411,1629,32776,147,99960,35.00,-7.24,-4.98
89433,2283,32752,199,99960,35.00,-7.24,-4.97
89455,1159,30960,159,99960,35.00,-7.24,-4.97
89477,647,29296,163,99960,35.00,-7.23,-4.97
89499,873,28592,158,99960,35.00,-7.22,-4.96
89521,1297,28080,171,99960,35.00,-7.24,-4.99
89543,1431,27312,167,99960,35.00,-7.21,-5.00
89565,1797,27312,159,99960,35.00,-7.22,-4.98
89587,1955,28080,148,99960,35.00,-7.24,-4.98
89609,1527,28080,134,99960,35.00,-7.20,-4.98
89650,1405,28080,141,99960,35.00,-7.22,-4.98
89672,1075,28592,123,99960,35.00,-7.24,-4.97
89694,1085,28784,140,99960,35.00,-7.22,-4.94
89716,1573,28784,167,99960,35.00,-7.24,-4.97
89738,1417,28784,169,99960,35.00,-7.26,-5.00
89760,1204,28784,168,99960,35.00,-7.24,-4.97
89782,1425,29296,167,99960,35.00,-7.25,-4.99
89804,1469,29296,151,99960,35.00,-7.25,-4.97
89826,1493,29296,151,99960,35.00,-7.24,-4.92
89848,1545,29296,132,99960,35.00,-7.19,-4.99
89891,1395,29296,121,99960,35.00,-7.23,-4.98
89913,1546,29296,127,99960,35.00,-7.23,-5.01
89935,1659,30064,151,99960,35.00,-7.24,-4.97
89957,2071,30064,173,99960,35.00,-7.24,-4.97
89979,2055,30064,185,99960,35.00,-7.23,-5.01
90371,1173,30064,163,99960,35.55,-7.23,-4.96
90412,0,30960,67,99960,35.00,-7.20,-4.94
90434,1371,30960,93,99960,35.00,-7.24,-5.00
90456,2019,30960,127,99960,35.00,-7.25,-4.99
90478,1931,31472,151,99960,35.00,-7.24,-4.96
90500,1815,30960,155,99960,35.00,-7.23,-4.99
90522,2077,31472,159,99960,35.00,-7.25,-4.96
90544,2597,30960,170,99960,35.00,-7.20,-4.98
90566,2749,30960,167,99960,35.00,-7.24,-5.00
90588,2719,30960,155,99960,35.00,-7.24,-4.98
90610,2569,30960,143,99960,35.00,-7.23,-4.98
90652,2413,31472,137,99960,35.00,-7.22,-4.96
90674,2447,31472,151,99960,35.00,-7.23,-4.99
90696,2259,31472,149,99960,35.00,-7.24,-4.99
90718,2383,31472,175,99960,35.00,-7.23,-4.98
90740,1086,30960,145,99960,35.00,-7.24,-4.97
90762,3128,30960,216,99960,35.00,-7.23,-4.94
90784,2424,30960,203,99960,35.00,-7.27,-4.97
90806,1568,30576,151,99960,35.00,-7.20,-4.97
90828,2799,30576,167,99960,35.00,-7.21,-4.97
90850,2447,30576,157,99960,35.00,-7.24,-4.96
90872,1909,30576,135,99960,35.00,-7.28,-4.96
90913,1684,30960,119,99960,35.00,-7.25,-4.98
90935,1509,30576,134,99960,35.00,-7.22,-5.00
90957,951,30576,131,99960,35.00,-7.26,-4.99
90979,760,30576,133,99960,35.00,-7.20,-5.00
91391,2135,30576,173,99960,35.54,-7.19,-4.96
91419,2373,30064,160,99960,35.00,-7.20,-4.99
91441,2245,30064,206,99960,35.00,-7.25,-5.00
91463,2203,30576,209,99960,35.00,-7.24,-4.96
91485,2021,30576,213,99960,35.00,-7.22,-4.96
91507,2031,30576,198,99960,35.00,-7.24,-4.98
91529,1831,30576,177,99960,35.00,-7.22,-5.01
91551,1679,30576,151,99960,35.00,-7.26,-4.99
91573,1397,30576,139,99960,35.00,-7.24,-4.97
91615,1461,30576,145,99960,35.00,-7.23,-4.97
91637,1270,30576,151,99960,35.00,-7.28,-4.95
91659,1048,30960,159,99960,35.00,-7.24,-5.00
91681,1049,30960,159,99960,35.00,-7.24,-4.96
91703,952,30960,157,99960,35.00,-7.24,-5.00
91725,1023,30960,153,99960,35.00,-7.28,-4.95
91747,715,30960,149,99960,35.00,-7.25,-4.99
91769,2251,30960,171,99960,35.00,-7.27,-4.99
91791,757,30960,123,99960,35.00,-7.21,-4.95
91813,1273,30960,119,99960,35.00,-7.26,-4.97
91855,1926,30960,127,99960,35.00,-7.25,-5.01
91877,495,30960,115,99960,35.00,-7.23,-4.98
91899,839,30960,125,99960,35.00,-7.24,-5.02
91921,1177,30960,165,99960,35.00,-7.23,-4.99
91943,1501,30576,181,99960,35.00,-7.23,-4.98
91965,1579,30576,183,99960,35.00,-7.24,-4.98
91987,1275,30064,159,99960,35.00,-7.21,-4.95
92411,1957,30064,169,99960,36.01,-7.21,-4.98
92440,1355,30064,121,99960,35.00,-7.29,-4.97
92462,775,30064,143,99960,35.00,-7.26,-4.99
92484,1047,30064,156,99960,35.00,-7.25,-4.97
92506,1437,30064,169,99960,35.00,-7.23,-4.96
92528,1525,30064,169,99960,35.00,-7.26,-4.94
92550,1699,30064,149,99960,35.00,-7.26,-5.02
92572,2008,30064,139,99960,35.00,-7.23,-4.98
92594,1883,30576,119,99960,35.00,-7.27,-4.97
92616,2075,30064,121,99960,35.00,-7.23,-4.96
92657,1941,30064,107,99960,35.00,-7.23,-4.97
92679,2676,30064,133,99960,35.00,-7.22,-5.00
92701,2100,30064,125,99960,35.00,-7.22,-4.94
92723,2151,30064,157,99960,35.00,-7.24,-4.97
92745,2267,30064,164,99960,35.00,-7.24,-4.95
92767,1599,30576,153,99960,35.00,-7.23,-4.97
92789,2660,30576,171,99960,35.00,-7.24,-4.97
92811,2539,30576,167,99960,35.00,-7.21,-4.96
92833,1645,30960,141,99960,35.00,-7.25,-5.00
92855,1941,30960,139,99960,35.00,-7.23,-4.98
92877,2168,30960,139,99960,35.00,-7.24,-4.97
92918,1919,30960,137,99960,35.00,-7.20,-4.99
92940,2267,30960,147,99960,35.00,-7.26,-4.99
92962,2421,30960,167,99960,35.00,-7.28,-4.96
92984,2067,30960,163,99960,35.00,-7.23,-4.95
93432,2597,30960,185,99960,34.91,-7.24,-4.97
93461,2477,30576,166,99960,35.00,-7.22,-4.96
93483,1881,30576,159,99960,35.00,-7.27,-4.98
93505,2419,30576,183,99960,35.00,-7.24,-4.98
93527,1745,30576,168,99960,35.00,-7.23,-4.97
93549,2340,30576,184,99960,35.00,-7.25,-4.98
93571,3821,30576,222,99960,35.00,-7.23,-4.98
93593,1784,30576,167,99960,35.00,-7.22,-4.97
93615,2773,30064,171,99960,35.00,-7.24,-5.00
93637,2587,30064,157,99960,35.00,-7.27,-4.96
93659,2409,29296,155,99960,35.00,-7.24,-4.97
93700,1541,28784,145,99960,35.00,-7.24,-4.95
93722,2074,28784,164,99960,35.00,-7.25,-4.98
93744,2207,28784,173,99960,35.00,-7.22,-4.95
93766,1847,30064,183,99960,35.00,-7.22,-4.94
93788,2001,30576,182,99960,35.00,-7.23,-4.99
93810,2648,31472,187,99960,35.00,-7.21,-5.01
93832,2543,32240,189,99960,35.00,-7.25,-5.00
93854,1557,32752,165,99960,35.00,-7.22,-4.99
93876,1517,32776,133,99960,35.00,-7.23,-4.97
93898,2457,33288,149,99960,35.00,-7.24,-5.00
93941,2732,33288,163,99960,35.00,-7.24,-4.99
93963,1325,33288,147,99960,35.00,-7.22,-4.98
93985,917,33288,150,99960,35.00,-7.27,-4.97
94708,1620,33288,171,99960,35.73,-7.25,-4.96
94743,1629,32752,183,99960,35.00,-7.23,-5.01
94765,1365,32752,139,99960,35.00,-7.22,-5.01
94787,1241,32752,153,99960,35.00,-7.18,-4.97
94809,1477,32240,175,99960,35.00,-7.24,-4.97
94831,558,32240,151,99960,35.00,-7.24,-4.99
94853,1784,32240,158,99960,35.00,-7.25,-4.98
94875,2886,32240,185,99960,35.00,-7.19,-4.98
94897,1420,32240,139,99960,35.00,-7.26,-4.96
94919,0,30960,101,99960,35.00,-7.27,-4.97
94941,1075,30576,107,99960,35.00,-7.21,-4.97
94983,1773,30576,142,99960,35.00,-7.25,-4.97
95728,923,30064,119,99960,35.30,-7.24,-4.97
95765,1928,28784,151,99960,35.00,-7.22,-4.99
95787,1681,29296,117,99960,35.00,-7.21,-4.99
95809,1790,29296,142,99960,35.00,-7.24,-4.94
95831,1891,29296,155,99960,35.00,-7.20,-5.00
95853,1693,29296,156,99960,35.00,-7.24,-4.98
95875,2079,29296,159,99960,35.00,-7.22,-4.93
95897,2663,29296,165,99960,35.00,-7.19,-4.95
95919,2987,29296,159,99960,35.00,-7.25,-4.96
95941,3051,29296,153,99960,35.00,-7.24,-4.99
95963,2980,29296,145,99960,35.00,-7.19,-4.97
95985,2940,29296,149,99960,35.00,-7.22,-4.99
96026,2703,29296,155,99960,35.00,-7.25,-4.98
96048,2660,30064,159,99960,35.00,-7.22,-4.96
96070,2538,30064,169,99960,35.00,-7.22,-5.02
96092,2637,30064,175,99960,35.00,-7.22,-5.00
96114,3320,30064,203,99960,35.00,-7.24,-4.98
96136,2957,29296,189,99960,35.00,-7.19,-4.98
96158,2632,30064,171,99960,35.00,-7.21,-4.95
96180,2568,30064,153,99960,35.00,-7.21,-4.96
96202,2583,30064,151,99960,35.00,-7.19,-4.97
96224,3053,30064,152,99960,35.00,-7.23,-4.98
96266,1033,30064,121,99960,35.00,-7.23,-5.00
96288,2284,30064,158,99960,35.00,-7.23,-4.98
96310,1588,30576,152,99960,35.00,-7.25,-4.96
96332,1467,30576,159,99960,35.00,-7.22,-4.96
96354,1723,30576,168,99960,35.00,-7.22,-4.99
96376,2063,30576,173,99960,35.00,-7.24,-4.99
96398,1703,30576,153,99960,35.00,-7.20,-4.95
96420,1718,30576,147,99960,35.00,-7.22,-4.93
96442,1645,30576,120,99960,35.00,-7.25,-4.98
96464,1707,30576,133,99960,35.00,-7.21,-4.97
96486,1639,30576,125,99960,35.00,-7.22,-4.99
96527,1548,30576,141,99960,35.00,-7.23,-4.97
96549,2135,30576,152,99960,35.00,-7.22,-4.98
96571,1351,30576,149,99960,35.00,-7.23,-4.99
96593,1444,30576,154,99960,35.00,-7.22,-4.97
96615,2094,30576,180,99960,35.00,-7.20,-4.94
96637,1830,30576,174,99960,35.00,-7.23,-4.96
96659,2089,30576,173,99960,35.00,-7.24,-5.01
96681,2175,30960,159,99960,35.00,-7.21,-4.99
96703,2153,30960,147,99960,35.00,-7.23,-5.00
96725,2213,30960,149,99960,35.00,-7.24,-4.97
96768,1967,30960,150,99960,35.00,-7.25,-4.95
96790,1801,30960,156,99960,35.00,-7.21,-5.04
96812,1709,31472,171,99960,35.00,-7.18,-4.95
96834,1675,31472,171,99960,35.00,-7.23,-4.97
96856,1737,31472,175,99960,35.00,-7.24,-4.96
96878,1829,31472,175,99960,35.00,-7.25,-4.95
96900,1819,31472,158,99960,35.00,-7.27,-4.96
96922,1861,31472,153,99960,35.00,-7.20,-4.96
96944,1813,31472,143,99960,35.00,-7.22,-4.98
96966,1695,31472,137,99960,35.00,-7.24,-4.98
97514,1587,31472,136,99960,35.89,-7.22,-4.99
97550,3382,31472,235,99960,35.00,-7.27,-4.98
97572,2331,31472,196,99960,35.00,-7.21,-5.01
97594,1139,32240,197,99960,35.00,-7.23,-4.93
97616,1019,32240,181,99960,35.00,-7.25,-4.97
97638,1002,32240,181,99960,35.00,-7.25,-4.98
97660,975,32240,159,99960,35.00,-7.25,-4.95
97682,1187,32240,156,99960,35.00,-7.23,-4.98
97704,1555,32752,139,99960,35.00,-7.26,-4.97
97726,1882,32752,145,99960,35.00,-7.24,-4.99
97748,1456,32752,131,99960,35.00,-7.24,-4.98
97790,1179,32752,137,99960,35.00,-7.24,-4.99
97812,1101,32240,145,99960,35.00,-7.24,-5.00
97834,1047,32752,151,99960,35.00,-7.25,-4.98
97856,1181,32752,169,99960,35.00,-7.22,-4.96
97878,1375,32240,174,99960,35.00,-7.20,-4.97
97900,1523,32240,178,99960,35.00,-7.26,-4.96
97922,1525,32752,157,99960,35.00,-7.25,-4.96
97944,1749,32240,149,99960,35.00,-7.25,-4.96
97966,1883,32752,137,99960,35.00,-7.20,-5.01
97988,1898,32240,134,99960,35.00,-7.24,-5.00
98534,1629,32752,123,99960,35.60,-7.19,-4.96
98572,0,32752,119,99960,35.00,-7.19,-5.01
98594,0,32752,109,99960,35.00,-7.19,-4.98
98616,1295,32752,139,99960,35.00,-7.22,-4.99
98638,1311,32752,147,99960,35.00,-7.22,-4.97
98660,1315,32752,155,99960,35.00,-7.21,-4.96
98682,1407,32752,155,99960,35.00,-7.24,-5.00
98704,1899,32752,155,99960,35.00,-7.25,-4.98
98726,2283,32240,145,99960,35.00,-7.21,-4.96
98748,2380,32240,147,99960,35.00,-7.24,-4.98
98770,2376,32240,139,99960,35.00,-7.21,-4.96
98792,2408,32240,148,99960,35.00,-7.21,-5.00
98833,2115,32240,146,99960,35.00,-7.26,-5.01
98855,1181,32240,117,99960,35.00,-7.24,-5.00
98877,1212,32240,139,99960,35.00,-7.24,-4.93
98899,1229,32240,141,99960,35.00,-7.23,-5.02
98921,1471,32240,148,99960,35.00,-7.20,-5.00
98943,1605,32240,141,99960,35.00,-7.18,-5.03
98965,1756,32240,136,99960,35.00,-7.27,-4.98
98987,1959,32240,127,99960,35.00,-7.26,-4.94
99555,2039,32240,121,99960,35.13,-7.22,-4.96
99595,2043,32240,157,99960,35.00,-7.23,-5.00
99617,1679,32240,151,99960,35.00,-7.22,-5.00
99639,2003,32240,188,99960,35.00,-7.21,-5.00
99661,2075,32240,209,99960,35.00,-7.24,-4.98
99683,2127,32240,213,99960,35.00,-7.22,-4.99
99705,2281,32240,199,99960,35.00,-7.22,-4.98
99727,2163,32752,185,99960,35.00,-7.24,-4.99
99749,1661,32752,155,99960,35.00,-7.23,-4.99
99771,1081,32752,133,99960,35.00,-7.21,-4.99
99793,927,32752,119,99960,35.00,-7.27,-4.95
99835,1006,32752,133,99960,35.00,-7.21,-4.96
99857,905,32752,143,99960,35.00,-7.21,-5.03
99879,905,32752,155,99960,35.00,-7.24,-4.99
99901,1032,32752,171,99960,35.00,-7.26,-4.93
99923,1215,32752,171,99960,35.00,-7.23,-4.96
99945,1159,32752,163,99960,35.00,-7.18,-4.97
99967,1187,32752,147,99960,35.00,-7.17,-4.99
99989,1243,32752,137,99960,35.00,-7.23,-4.95
100575,1331,32752,125,99960,35.23,-7.23,-4.97
100617,2205,32752,137,99960,35.00,-7.22,-4.95
100639,2205,32752,137,99960,35.00,-7.20,-4.95
100661,2423,32752,168,99960,35.00,-7.20,-4.97
100683,2133,32752,167,99960,35.00,-7.23,-4.98
100705,1847,32752,151,99960,35.00,-7.22,-4.96
100727,1773,32776,122,99960,35.00,-7.19,-4.95
100749,1452,32776,103,99960,35.00,-7.24,-4.97
100771,886,32752,72,99960,35.00,-7.22,-4.93
100793,0,32752,47,99960,35.00,-7.21,-4.97
100815,247,32752,42,99960,35.00,-7.24,-4.98
100837,347,32776,57,99960,35.00,-7.26,-4.95
100878,936,32776,87,99960,35.00,-7.22,-4.95
100900,717,32752,100,99960,35.00,-7.20,-4.97
100922,1709,32752,137,99960,35.00,-7.21,-4.99
100944,2773,32752,189,99960,35.00,-7.25,-5.00
100966,3838,32752,246,99960,35.00,-7.22,-4.96
100988,3853,32752,279,99960,35.00,-7.25,-4.99
101350,3858,32752,285,99960,35.87,-7.19,-5.00
101379,2743,32752,207,99960,35.00,-7.23,-5.01
101401,1997,32752,181,99960,35.00,-7.25,-4.96
101423,1823,32776,191,99960,35.00,-7.27,-4.95
101445,1745,32776,197,99960,35.00,-7.23,-4.93
101467,1651,32776,188,99960,35.00,-7.21,-4.99
101489,1609,32776,174,99960,35.00,-7.23,-5.00
101511,1712,32776,167,99960,35.00,-7.24,-4.98
101533,1597,32776,140,99960,35.00,-7.25,-4.98
101555,1429,32776,136,99960,35.00,-7.24,-4.95
101577,1161,32776,123,99960,35.00,-7.20,-4.99
101620,1049,32776,141,99960,35.00,-7.23,-4.99
101642,1336,32752,149,99960,35.00,-7.27,-4.99
101664,1095,32776,166,99960,35.00,-7.24,-4.95
101686,957,32776,167,99960,35.00,-7.23,-4.95
101708,1150,32776,157,99960,35.00,-7.20,-4.99
101730,1453,32776,156,99960,35.00,-7.26,-4.98
101752,1720,32752,165,99960,35.00,-7.22,-4.99
101774,1691,32752,151,99960,35.00,-7.24,-4.99
101796,1773,32776,157,99960,35.00,-7.29,-4.97
101818,2527,32776,175,99960,35.00,-7.21,-4.94
101860,2185,32776,191,99960,35.00,-7.25,-5.00
101882,1589,32752,151,99960,35.00,-7.24,-5.00
101904,1773,32752,185,99960,35.00,-7.24,-4.96
101926,1669,32776,191,99960,35.00,-7.25,-4.94
101948,1563,32752,185,99960,35.00,-7.21,-4.99
101970,1571,32776,169,99960,35.00,-7.25,-4.96
101992,1855,32776,168,99960,35.00,-7.23,-5.01
102361,1613,32752,138,99960,34.98,-7.23,-4.97
102401,1611,32752,144,99960,35.00,-7.24,-4.97
102423,1482,32776,143,99960,35.00,-7.24,-4.97
102445,1429,32752,159,99960,35.00,-7.24,-4.95
102467,1607,32776,163,99960,35.00,-7.23,-4.98
102489,1780,32752,175,99960,35.00,-7.26,-4.95
102511,1767,32776,167,99960,35.00,-7.27,-4.95
102533,1587,32776,151,99960,35.00,-7.23,-4.97
102555,1723,32776,140,99960,35.00,-7.23,-4.98
102577,1801,32776,139,99960,35.00,-7.24,-4.95
102599,1595,32776,125,99960,35.00,-7.24,-4.99
102621,1293,32776,125,99960,35.00,-7.22,-4.92
102662,1266,32776,139,99960,35.00,-7.23,-4.96
102684,1335,32776,141,99960,35.00,-7.22,-4.94
102706,1245,32776,155,99960,35.00,-7.24,-4.95
102728,1299,32776,163,99960,35.00,-7.25,-4.93
102750,1433,32776,166,99960,35.00,-7.21,-4.96
102772,1619,32776,155,99960,35.00,-7.21,-4.96
102794,1767,32776,151,99960,35.00,-7.22,-4.96
102816,1640,32776,127,99960,35.00,-7.22,-4.98
102838,1629,32776,133,99960,35.00,-7.20,-4.97
102860,1546,32776,117,99960,35.00,-7.24,-4.97
102903,1505,32776,132,99960,35.00,-7.24,-4.97
102925,1595,32752,140,99960,35.00,-7.21,-4.95
102947,1975,32752,171,99960,35.00,-7.26,-4.99
102969,2679,32752,207,99960,35.00,-7.20,-4.97
102991,767,32240,152,99960,35.00,-7.26,-4.92
103381,1455,32240,138,99960,35.63,-7.21,-4.96
103409,2437,31472,155,99960,35.00,-7.24,-4.98
103431,2404,31472,189,99960,35.00,-7.23,-4.93
103453,2197,32240,181,99960,35.00,-7.23,-4.98
103475,2265,31472,171,99960,35.00,-7.20,-4.97
103497,2381,30960,173,99960,35.00,-7.17,-4.93
103519,2493,30960,165,99960,35.00,-7.24,-5.00
103541,2107,30960,151,99960,35.00,-7.22,-4.97
103563,1845,30960,149,99960,35.00,-7.24,-5.00
103604,1809,31472,159,99960,35.00,-7.25,-4.96
103626,1851,31472,151,99960,35.00,-7.22,-5.01
103648,1383,31472,159,99960,35.00,-7.24,-4.98
103670,1171,31472,167,99960,35.00,-7.24,-4.99
103692,1507,30960,169,99960,35.00,-7.18,-4.96
103714,1959,31472,167,99960,35.00,-7.22,-4.98
103736,1991,31472,167,99960,35.00,-7.26,-5.03
103758,2165,31472,153,99960,35.00,-7.20,-4.96
103780,2411,31472,155,99960,35.00,-7.23,-4.99
103802,1927,31472,140,99960,35.00,-7.23,-4.96
103824,1572,31472,141,99960,35.00,-7.22,-4.98
103865,994,31472,138,99960,35.00,-7.24,-4.99
103887,1417,31472,151,99960,35.00,-7.23,-4.98
103909,1435,32240,171,99960,35.00,-7.24,-4.97
103931,1496,32240,167,99960,35.00,-7.22,-4.96
103953,1451,32752,165,99960,35.00,-7.24,-4.96
103975,1319,32752,155,99960,35.00,-7.21,-4.97
103997,1593,32752,153,99960,35.00,-7.25,-5.01
104401,1833,32752,140,99960,35.59,-7.22,-4.94
104429,2153,33288,133,99960,35.00,-7.21,-4.99
104451,923,32776,147,99960,35.00,-7.22,-4.98
104473,1076,33288,154,99960,35.00,-7.24,-4.95
104495,1785,33288,168,99960,35.00,-7.22,-4.92
104517,2479,33288,175,99960,35.00,-7.25,-4.98
104539,2363,34056,155,99960,35.00,-7.20,-4.94
104561,1901,34056,124,99960,35.00,-7.23,-4.98
104583,1420,33288,119,99960,35.00,-7.21,-5.01
104605,741,33288,115,99960,35.00,-7.25,-5.02
104647,301,33288,115,99960,35.00,-7.24,-4.98
104669,696,32776,116,99960,35.00,-7.25,-5.00
104691,782,32776,149,99960,35.00,-7.23,-4.97
104713,0,32776,117,99960,35.00,-7.24,-4.96
104735,0,32776,119,99960,35.00,-7.27,-4.98
104757,0,32776,109,99960,35.00,-7.19,-4.95
104779,0,32776,99,99960,35.00,-7.20,-4.99
104801,0,32752,77,99960,35.00,-7.22,-4.95
104823,0,32752,83,99960,35.00,-7.25,-4.98
104845,0,32752,87,99960,35.00,-7.24,-4.96
104888,687,32752,107,99960,35.00,-7.22,-5.01
104910,1891,32752,143,99960,35.00,-7.23,-4.99
104932,1151,32752,157,99960,35.00,-7.26,-4.99
104954,1893,32752,174,99960,35.00,-7.24,-5.02
104976,2491,32752,169,99960,35.00,-7.23,-5.01
104998,2685,32776,165,99960,35.00,-7.19,-4.96
105020,3833,32776,175,99960,35.00,-7.22,-4.99
105042,2541,33288,121,99960,35.00,-7.25,-4.97
105064,0,34056,95,99960,35.00,-7.25,-4.93
105086,859,34056,121,99960,35.00,-7.22,-4.96
105128,695,34056,109,99960,35.00,-7.25,-5.01
105150,765,34568,127,99960,35.00,-7.24,-4.99
105172,1195,34568,155,99960,35.00,-7.28,-4.95
105194,2207,34568,175,99960,35.00,-7.27,-4.95
105216,2847,34952,179,99960,35.00,-7.25,-4.97
105238,3276,34952,181,99960,35.00,-7.24,-4.97
105260,3849,34952,187,99960,35.00,-7.21,-5.01
105282,3371,34952,163,99960,35.00,-7.25,-5.05
105304,3795,35464,166,99960,35.00,-7.26,-4.94
105326,3683,35464,159,99960,35.00,-7.26,-4.96
105369,3629,35464,167,99960,35.00,-7.26,-4.98
105391,3507,35464,185,99960,35.00,-7.19,-4.96
105413,3496,35464,201,99960,35.00,-7.22,-4.93
105435,3849,35464,214,99960,35.00,-7.24,-4.98
105457,3863,35464,215,99960,35.00,-7.28,-4.97
105479,3857,35464,210,99960,35.00,-7.25,-5.00
105501,3844,36232,185,99960,35.00,-7.23,-4.95
105523,2778,36232,160,99960,35.00,-7.22,-5.02
105545,2312,36232,147,99960,35.00,-7.23,-4.96
105567,2071,36232,150,99960,35.00,-7.23,-4.93
105609,2577,36232,158,99960,35.00,-7.22,-4.98
105631,164,36232,105,99960,35.00,-7.20,-4.97
105653,409,36232,159,99960,35.00,-7.24,-4.94
105675,2065,36232,182,99960,35.00,-7.28,-4.97
105697,2314,36232,188,99960,35.00,-7.23,-4.96
105719,3123,36232,198,99960,35.00,-7.20,-4.97
105741,3355,36232,191,99960,35.00,-7.21,-5.01
105763,2197,36232,147,99960,35.00,-7.26,-4.97
105785,3380,35464,205,99960,35.00,-7.23,-4.96
105807,2329,34952,149,99960,35.00,-7.22,-4.97
105829,3555,34952,184,99960,35.00,-7.28,-4.96
105870,3835,34952,200,99960,35.00,-7.23,-4.96
105892,1992,34568,159,99960,35.00,-7.24,-4.92
105914,149,34568,140,99960,35.00,-7.23,-4.97
105936,1041,34056,172,99960,35.00,-7.20,-5.02
105958,1503,33288,183,99960,35.00,-7.19,-5.01
105980,1097,33288,169,99960,35.00,-7.22,-5.00
106697,1101,33288,156,99960,35.78,-7.21,-4.98
106732,1941,32752,167,99960,35.00,-7.23,-4.96
106754,1573,32752,141,99960,35.00,-7.23,-4.97
106776,1727,32752,167,99960,35.00,-7.25,-4.98
106798,1816,32776,173,99960,35.00,-7.24,-4.99
106820,1994,32752,179,99960,35.00,-7.25,-5.00
106842,1907,32752,157,99960,35.00,-7.22,-4.98
106864,339,32776,119,99960,35.00,-7.23,-4.94
106886,2595,32776,157,99960,35.00,-7.23,-4.96
106908,2841,32776,183,99960,35.00,-7.23,-5.01
106930,1338,32752,125,99960,35.00,-7.22,-4.99
106972,1834,32752,138,99960,35.00,-7.23,-5.00
106994,1789,32752,155,99960,35.00,-7.21,-4.94
107718,789,32240,164,99960,35.42,-7.21,-5.00
107754,1975,28784,171,99960,35.00,-7.24,-4.97
107776,2543,28784,169,99960,35.00,-7.23,-4.96
107798,2675,29296,190,99960,35.00,-7.22,-4.97
107820,2897,29296,207,99960,35.00,-7.24,-5.00
107842,3835,29296,232,99960,35.00,-7.24,-4.97
107864,2248,30064,189,99960,35.00,-7.21,-5.01
107886,3288,30576,212,99960,35.00,-7.20,-4.97
107908,2891,30576,175,99960,35.00,-7.20,-4.98
107930,2630,30576,165,99960,35.00,-7.23,-4.97
107952,2605,30576,155,99960,35.00,-7.23,-4.95
107974,2943,30576,172,99960,35.00,-7.22,-5.00
108739,3771,30576,200,99960,34.92,-7.26,-4.96
108777,1177,30064,137,99960,35.00,-7.19,-5.00
108799,1496,30064,121,99960,35.00,-7.24,-4.96
108821,1887,29296,147,99960,35.00,-7.22,-4.96
108843,1751,29296,141,99960,35.00,-7.23,-4.95
108865,1835,29296,147,99960,35.00,-7.22,-5.00
108887,2315,29296,146,99960,35.00,-7.22,-4.96
108909,2423,29296,147,99960,35.00,-7.20,-4.95
108931,2239,29296,135,99960,35.00,-7.24,-4.98
108953,2160,29296,137,99960,35.00,-7.20,-4.99
108975,2253,29296,137,99960,35.00,-7.26,-4.97
109759,2215,29296,154,99960,34.84,-7.24,-4.98
109799,1655,30960,135,99960,35.00,-7.22,-5.00
109821,1736,30960,125,99960,35.00,-7.23,-4.95
109843,1391,30960,142,99960,35.00,-7.22,-4.93
109865,1913,31472,153,99960,35.00,-7.20,-4.95
109887,2088,31472,167,99960,35.00,-7.25,-4.96
109909,2087,32240,157,99960,35.00,-7.24,-4.94
109931,2187,32240,152,99960,35.00,-7.23,-4.99
109953,2063,32240,125,99960,35.00,-7.21,-4.95
109975,2367,32240,127,99960,35.00,-7.24,-4.98
109997,2263,32240,121,99960,35.00,-7.25,-4.98
110525,1820,32752,127,99960,34.85,-7.24,-5.01
110561,1773,34568,179,99960,35.00,-7.22,-4.98
110583,1337,34568,145,99960,35.00,-7.22,-4.98
110605,1609,34568,164,99960,35.00,-7.26,-4.92
110627,1551,34952,173,99960,35.00,-7.21,-4.98
110649,1427,35464,173,99960,35.00,-7.20,-4.98
110671,1230,36232,157,99960,35.00,-7.21,-4.97
110693,1759,36744,152,99960,35.00,-7.23,-4.95
110715,1507,36744,125,99960,35.00,-7.22,-4.96
110737,1455,36936,127,99960,35.00,-7.23,-4.98
110759,1350,36936,115,99960,35.00,-7.19,-4.95
110781,1220,37448,123,99960,35.00,-7.24,-4.95
110822,1331,37448,137,99960,35.00,-7.21,-4.97
110844,1233,38216,135,99960,35.00,-7.22,-4.94
110866,1031,39112,155,99960,35.00,-7.25,-4.97
110888,1557,39112,167,99960,35.00,-7.26,-5.02
110910,1407,39624,155,99960,35.00,-7.21,-4.95
110932,1741,39624,142,99960,35.00,-7.24,-4.95
110954,2021,39624,140,99960,35.00,-7.22,-4.95
110976,1810,39624,123,99960,35.00,-7.19,-4.96
110998,1747,40392,116,99960,35.00,-7.22,-4.98
111020,2159,40392,121,99960,35.00,-7.21,-4.97
111062,2185,40904,142,99960,35.00,-7.26,-4.96
111084,1933,40904,137,99960,35.00,-7.27,-4.96
111106,1979,40904,153,99960,35.00,-7.23,-4.97
111128,951,40904,135,99960,35.00,-7.22,-4.97
111150,2629,40904,169,99960,35.00,-7.24,-4.98
111172,2847,40904,182,99960,35.00,-7.20,-4.97
111194,3159,40392,175,99960,35.00,-7.19,-5.00
111216,1785,39624,135,99960,35.00,-7.26,-4.95
111238,2525,39112,140,99960,35.00,-7.24,-4.97
111260,2430,39112,139,99960,35.00,-7.24,-4.98
111282,2171,38728,141,99960,35.00,-7.17,-4.97
111323,1991,38728,143,99960,35.00,-7.27,-5.01
111345,1428,38728,153,99960,35.00,-7.24,-5.01
111367,1379,38728,172,99960,35.00,-7.21,-4.98
111389,1677,38728,180,99960,35.00,-7.23,-4.99
111411,1533,38728,173,99960,35.00,-7.23,-5.01
111433,1629,38728,164,99960,35.00,-7.27,-5.01
111455,1514,39112,155,99960,35.00,-7.24,-4.95
111477,1493,38728,135,99960,35.00,-7.19,-4.95
111499,1567,38728,141,99960,35.00,-7.20,-4.98
111521,1520,38728,124,99960,35.00,-7.20,-4.95
111564,1575,38728,147,99960,35.00,-7.24,-4.96
111586,1139,38728,149,99960,35.00,-7.24,-4.96
111608,1227,38728,163,99960,35.00,-7.24,-4.97
111630,1340,38728,163,99960,35.00,-7.24,-4.97
111652,1279,38216,151,99960,35.00,-7.25,-4.98
111674,1229,38216,139,99960,35.00,-7.22,-4.99
111696,1520,38216,124,99960,35.00,-7.20,-4.97
111718,1957,37448,123,99960,35.00,-7.21,-5.00
111740,2300,37448,137,99960,35.00,-7.25,-4.99
111762,1587,37448,135,99960,35.00,-7.26,-4.97
111804,1367,37448,125,99960,35.00,-7.21,-4.98
111826,1118,38216,125,99960,35.00,-7.20,-4.98
111848,1553,38216,163,99960,35.00,-7.24,-4.98
111870,1144,38216,160,99960,35.00,-7.26,-4.97
111892,1501,38216,159,99960,35.00,-7.24,-4.95
111914,2103,38216,163,99960,35.00,-7.24,-4.98
111936,1927,38728,155,99960,35.00,-7.22,-5.00
111958,1531,38728,127,99960,35.00,-7.24,-4.97
111980,1653,38728,125,99960,35.00,-7.23,-4.98
112566,1928,38728,134,99960,35.63,-7.26,-4.99
112606,1958,36232,155,99960,35.00,-7.27,-4.97
112628,2127,36232,139,99960,35.00,-7.24,-4.96
112650,1863,36232,167,99960,35.00,-7.23,-4.96
112672,2457,36232,185,99960,35.00,-7.22,-4.95
112694,2037,35464,172,99960,35.00,-7.25,-4.95
112716,2514,35464,165,99960,35.00,-7.26,-4.98
112738,2659,35464,171,99960,35.00,-7.25,-4.97
112760,2779,35464,150,99960,35.00,-7.21,-4.95
112782,2467,35464,151,99960,35.00,-7.25,-4.99
112804,2311,34952,137,99960,35.00,-7.19,-4.99
112826,1948,34952,149,99960,35.00,-7.23,-4.98
112867,1958,34952,157,99960,35.00,-7.24,-4.95
112889,1749,34952,157,99960,35.00,-7.20,-4.95
112911,1689,34952,167,99960,35.00,-7.27,-5.01
112933,1391,34952,167,99960,35.00,-7.23,-5.01
112955,1917,34952,170,99960,35.00,-7.21,-4.99
112977,2141,35464,169,99960,35.00,-7.22,-4.95
112999,2070,35464,152,99960,35.00,-7.25,-4.96
113021,1705,36232,125,99960,35.00,-7.28,-4.99
113043,1375,36232,110,99960,35.00,-7.19,-4.98
113065,1528,36232,131,99960,35.00,-7.23,-4.95
113107,1547,36744,151,99960,35.00,-7.26,-4.97
113129,1237,36744,135,99960,35.00,-7.22,-5.01
113151,1363,36744,155,99960,35.00,-7.27,-5.00
113173,1721,36744,178,99960,35.00,-7.23,-4.99
113195,1053,36232,165,99960,35.00,-7.22,-4.96
113217,1459,36232,141,99960,35.00,-7.23,-4.94
113239,1947,36744,151,99960,35.00,-7.22,-4.97
113261,3795,36744,172,99960,35.00,-7.26,-4.96
113283,1375,36936,119,99960,35.00,-7.21,-5.00
113305,995,36936,104,99960,35.00,-7.20,-4.99
113327,2439,36936,141,99960,35.00,-7.28,-4.97
113368,2005,36936,157,99960,35.00,-7.24,-4.96
113390,1055,36936,135,99960,35.00,-7.22,-4.98
113412,1251,36744,149,99960,35.00,-7.24,-4.95
113434,1647,36232,165,99960,35.00,-7.23,-4.97
113456,1631,34952,166,99960,35.00,-7.20,-4.97
113478,1560,34568,141,99960,35.00,-7.23,-4.98
113500,1705,34056,141,99960,35.00,-7.22,-4.98
113522,1797,33288,125,99960,35.00,-7.20,-4.97
113544,1722,32776,121,99960,35.00,-7.24,-4.98
113566,1716,32752,123,99960,35.00,-7.23,-5.01
113609,1767,32752,139,99960,35.00,-7.23,-5.01
113631,1364,17680,139,99960,35.00,-7.24,-5.01
113653,1491,5440,153,99960,35.00,-7.23,-4.96
113675,1529,1280,150,99960,35.00,-7.22,-4.96
113697,2285,512,179,99960,35.00,-7.27,-4.98
113719,2078,512,157,99960,35.00,-7.24,-4.96
113741,1676,1280,132,99960,35.00,-7.22,-5.01
113763,1781,2688,137,99960,35.00,-7.21,-4.97
113785,2203,3968,147,99960,35.00,-7.21,-4.92
113807,2352,4672,147,99960,35.00,-7.23,-4.96
113849,1834,5952,138,99960,35.00,-7.26,-5.00
113871,1594,10016,147,99960,35.00,-7.22,-4.98
113893,2057,13664,175,99960,35.00,-7.21,-4.97
113915,2153,16400,171,99960,35.00,-7.24,-4.94
113937,2103,18576,172,99960,35.00,-7.24,-4.98
113959,2109,19856,157,99960,35.00,-7.24,-4.96
113981,1739,20560,151,99960,35.00,-7.23,-4.97
114351,3115,21840,165,99960,35.44,-7.20,-4.98
114391,1333,25904,151,99960,35.00,-7.19,-4.97
114413,1019,25904,143,99960,35.00,-7.22,-4.98
114435,1259,26416,153,99960,35.00,-7.22,-4.96
114457,1865,26416,170,99960,35.00,-7.20,-4.96
114479,1657,26416,150,99960,35.00,-7.21,-4.95
114501,1743,26416,147,99960,35.00,-7.19,-4.97
114523,1895,26800,133,99960,35.00,-7.23,-4.97
114545,1939,26800,126,99960,35.00,-7.24,-4.98
114567,1965,26800,125,99960,35.00,-7.21,-4.99
114589,1797,26800,121,99960,35.00,-7.23,-4.97
114631,1583,26800,139,99960,35.00,-7.24,-4.99
114653,1327,26800,143,99960,35.00,-7.22,-4.98
114675,1515,26800,155,99960,35.00,-7.28,-4.94
114697,1659,27312,165,99960,35.00,-7.23,-4.99
114719,1775,27312,159,99960,35.00,-7.23,-5.00
114741,1868,27312,153,99960,35.00,-7.26,-4.96
114763,1895,27312,135,99960,35.00,-7.23,-5.01
114785,1816,27312,133,99960,35.00,-7.25,-4.98
114807,1641,27312,118,99960,35.00,-7.18,-4.96
114829,1598,27312,120,99960,35.00,-7.25,-4.92
114851,1644,27312,127,99960,35.00,-7.24,-4.96
114892,1679,28080,146,99960,35.00,-7.22,-4.96
114914,1560,28080,149,99960,35.00,-7.21,-4.98
114936,1645,28080,159,99960,35.00,-7.21,-4.99
114958,1675,28080,164,99960,35.00,-7.27,-5.00
114980,1678,28080,157,99960,35.00,-7.23,-4.99
115372,1889,28080,151,99960,35.50,-7.20,-4.95
115413,1639,28592,149,99960,35.00,-7.22,-4.94
115435,2414,28592,175,99960,35.00,-7.23,-4.94
115457,1295,28592,157,99960,35.00,-7.23,-4.97
115479,1646,28784,167,99960,35.00,-7.22,-4.99
115501,1967,28784,174,99960,35.00,-7.25,-4.99
115523,1927,28784,159,99960,35.00,-7.23,-4.98
115545,1847,28784,149,99960,35.00,-7.21,-4.95
115567,1779,28592,135,99960,35.00,-7.22,-4.93
115589,1755,28784,133,99960,35.00,-7.28,-4.96
115611,1701,28784,123,99960,35.00,-7.24,-4.99
115633,1350,28784,143,99960,35.00,-7.19,-4.98
115674,1421,28784,148,99960,35.00,-7.23,-5.00
115696,1303,28784,153,99960,35.00,-7.22,-4.97
115718,1252,28784,153,99960,35.00,-7.27,-4.96
115740,1221,28784,153,99960,35.00,-7.22,-4.99
115762,1647,28784,153,99960,35.00,-7.20,-4.98
115784,1366,29296,140,99960,35.00,-7.24,-4.92
115806,1407,28784,115,99960,35.00,-7.23,-4.99
115828,1293,28784,110,99960,35.00,-7.25,-4.99
115850,1355,29296,103,99960,35.00,-7.23,-4.93
115872,1323,29296,109,99960,35.00,-7.21,-4.98
115915,1100,29296,119,99960,35.00,-7.22,-5.00
115937,1210,29296,125,99960,35.00,-7.24,-4.93
115959,1400,29296,140,99960,35.00,-7.25,-4.95
115981,1391,29296,139,99960,35.00,-7.24,-4.98
116392,1619,29296,135,99960,36.07,-7.21,-5.01
116420,1908,30576,149,99960,35.00,-7.21,-4.95
116442,1877,30576,179,99960,35.00,-7.23,-4.95
116464,2035,30576,173,99960,35.00,-7.22,-4.94
116486,1937,30576,158,99960,35.00,-7.21,-5.00
116508,2275,30576,152,99960,35.00,-7.25,-4.97
116530,1913,30576,139,99960,35.00,-7.21,-4.99
116552,1711,30576,133,99960,35.00,-7.25,-4.96
116574,1773,30576,139,99960,35.00,-7.24,-4.98
116616,1416,30576,142,99960,35.00,-7.24,-4.95
116638,1015,30576,148,99960,35.00,-7.23,-4.98
116660,1243,30576,151,99960,35.00,-7.23,-4.97
116682,1065,30576,153,99960,35.00,-7.21,-4.98
116704,1335,30576,152,99960,35.00,-7.19,-4.97
116726,1479,30960,137,99960,35.00,-7.24,-4.98
116748,1541,30960,125,99960,35.00,-7.21,-4.99
116770,1397,30960,111,99960,35.00,-7.21,-4.94
116792,1289,30960,109,99960,35.00,-7.19,-4.96
116814,1271,30576,114,99960,35.00,-7.21,-5.00
116836,1208,30960,125,99960,35.00,-7.23,-4.96
116877,1020,30960,125,99960,35.00,-7.23,-5.00
116899,1068,30576,134,99960,35.00,-7.23,-4.98
116921,1203,30576,149,99960,35.00,-7.26,-4.95
116943,1287,30576,142,99960,35.00,-7.20,-4.95
116965,1370,30960,135,99960,35.00,-7.26,-4.97
116987,1645,30960,132,99960,35.00,-7.24,-5.01
117413,1785,30960,109,99960,36.54,-7.21,-5.01
117442,2169,30960,135,99960,35.00,-7.22,-4.94
117464,1967,30960,175,99960,35.00,-7.24,-4.99
117486,2015,30960,157,99960,35.00,-7.27,-4.94
117508,2409,30576,171,99960,35.00,-7.23,-4.94
117530,2659,30576,155,99960,35.00,-7.24,-4.95
117552,2063,30576,135,99960,35.00,-7.23,-4.97
117574,2283,30576,141,99960,35.00,-7.26,-5.01
117596,2043,30576,141,99960,35.00,-7.21,-4.99
117618,1769,30576,147,99960,35.00,-7.22,-4.96
117659,1773,30576,163,99960,35.00,-7.21,-4.95
117681,1831,30576,167,99960,35.00,-7.19,-4.98
117703,1692,30960,171,99960,35.00,-7.23,-5.01
117725,1740,30960,171,99960,35.00,-7.21,-4.97
117747,1883,30960,169,99960,35.00,-7.21,-5.02
117769,1983,30960,157,99960,35.00,-7.23,-4.96
117791,1948,30960,145,99960,35.00,-7.24,-4.95
117813,1832,30960,141,99960,35.00,-7.22,-4.99
117835,1772,30960,143,99960,35.00,-7.21,-4.99
117857,1769,30960,147,99960,35.00,-7.22,-5.00
117899,1709,30960,155,99960,35.00,-7.26,-4.99
117921,1643,30960,173,99960,35.00,-7.23,-5.00
117943,1767,30960,177,99960,35.00,-7.23,-4.98
117965,1819,30960,180,99960,35.00,-7.24,-4.99
117987,1805,30960,173,99960,35.00,-7.21,-4.99
118433,1955,30960,169,99960,35.24,-7.23,-4.97
118462,1797,30960,141,99960,35.00,-7.20,-4.97
118484,1340,30960,167,99960,35.00,-7.19,-4.99
118506,1493,30960,175,99960,35.00,-7.24,-5.00
118528,1719,30960,180,99960,35.00,-7.20,-4.97
118550,1851,30960,167,99960,35.00,-7.27,-4.98
118572,1914,30960,155,99960,35.00,-7.22,-4.97
118594,1851,30960,149,99960,35.00,-7.21,-4.98
118616,1869,30960,141,99960,35.00,-7.23,-4.99
118638,1847,30960,147,99960,35.00,-7.22,-4.97
118660,1763,30960,163,99960,35.00,-7.22,-4.99
118701,1747,30960,167,99960,35.00,-7.24,-4.96
118723,1749,30960,178,99960,35.00,-7.21,-4.97
118745,1783,30960,182,99960,35.00,-7.23,-5.03
118767,1845,30960,189,99960,35.00,-7.23,-4.97
118789,1970,30960,183,99960,35.00,-7.22,-4.97
118811,1949,30960,179,99960,35.00,-7.19,-4.97
118833,1945,30960,159,99960,35.00,-7.23,-4.98
118855,1967,30960,151,99960,35.00,-7.24,-4.96
118877,1875,31472,143,99960,35.00,-7.23,-4.97
118899,1785,30960,148,99960,35.00,-7.27,-4.96
118921,1659,31472,159,99960,35.00,-7.20,-4.98
118962,1577,30960,169,99960,35.00,-7.25,-4.95
118984,1519,30960,171,99960,35.00,-7.24,-4.97
119708,1449,30960,175,99960,35.57,-7.20,-5.01
119744,2073,30960,179,99960,35.00,-7.24,-4.93
119766,1912,30960,175,99960,35.00,-7.23,-5.02
119788,2091,31472,185,99960,35.00,-7.26,-4.97
119810,1973,31472,183,99960,35.00,-7.25,-4.95
119832,2263,31472,181,99960,35.00,-7.21,-4.98
119854,2546,31472,179,99960,35.00,-7.23,-5.01
119876,2092,31472,153,99960,35.00,-7.02,-4.83
119898,2151,31472,153,99960,35.00,-7.26,-5.00
119920,2058,31472,146,99960,35.00,-7.21,-5.00
119942,2045,31472,151,99960,35.00,-7.17,-4.95
119984,1419,31472,149,99960,35.00,-7.19,-4.98
120729,2107,31472,185,99960,35.82,-7.23,-5.01
120766,2007,32240,168,99960,35.00,-7.20,-4.98
120788,1742,32240,153,99960,35.00,-7.20,-4.98
120810,1751,32240,173,99960,35.00,-7.23,-4.97
120832,2245,32240,201,99960,35.00,-7.23,-4.98
120854,2695,32240,199,99960,35.00,-7.20,-5.01
120876,2573,32240,179,99960,35.00,-7.24,-4.97
120898,3269,32752,233,99960,35.00,-7.24,-4.95
120920,3816,33288,265,99960,35.00,-7.24,-4.97
120942,1135,36232,88,99960,35.00,-7.24,-4.99
120964,0,40904,90,99960,35.00,-7.20,-4.96
120986,2581,41512,210,99960,35.00,-7.23,-4.99
121027,3423,42280,172,99960,35.00,-7.24,-4.97
121049,1211,42280,137,99960,35.00,-7.21,-5.00
121071,1711,41512,157,99960,35.00,-7.19,-4.96
121093,1909,37448,181,99960,35.00,-7.22,-4.95
121115,2135,33288,187,99960,35.00,-7.26,-4.96
121137,1973,32752,159,99960,35.00,-7.23,-5.00
121159,2607,32752,179,99960,35.00,-7.18,-5.01
121181,3630,32752,197,99960,35.00,-7.22,-4.99
121203,3082,32752,157,99960,35.00,-7.23,-4.98
121225,2123,32240,163,99960,35.00,-7.25,-4.94
121267,2821,32240,188,99960,35.00,-7.21,-4.99
121289,1901,32752,175,99960,35.00,-7.22,-4.99
121311,2595,32240,220,99960,35.00,-7.21,-4.96
121333,2775,32752,263,99960,35.00,-7.21,-4.97
121355,2695,32240,249,99960,35.00,-7.26,-4.97
121377,2727,32240,235,99960,35.00,-7.23,-4.94
121399,3454,32752,269,99960,35.00,-7.24,-5.00
121421,3805,32752,236,99960,35.00,-7.23,-5.01
121443,3831,32776,307,99960,35.00,-7.26,-4.97
121465,3852,33288,349,99960,35.00,-7.21,-4.93
121487,3871,34056,521,99960,35.00,-7.23,-4.98
121528,3877,34056,1081,99960,35.00,-7.24,-5.01
121550,3853,34568,1555,99960,35.00,-7.24,-5.01
121572,3860,34952,1100,99960,35.00,-7.24,-4.95
121594,3837,34568,781,99960,35.00,-7.21,-4.97
121616,3839,32776,639,99960,35.00,-7.18,-5.04
121638,3832,32752,431,99960,35.00,-7.17,-4.99
121660,1431,32240,185,99960,35.00,-7.20,-4.98
121682,267,32240,115,99960,35.00,-7.27,-4.96
121704,0,32776,86,99960,35.00,-7.26,-4.94
121726,0,33288,56,99960,35.00,-7.23,-5.00
121769,0,32752,71,99960,35.00,-7.23,-4.99
121791,0,32240,101,99960,35.00,-7.28,-4.94
121813,0,32752,103,99960,35.00,-7.26,-4.95
121835,0,32752,81,99960,35.00,-7.19,-4.93
121857,0,32752,51,99960,35.00,-7.25,-4.99
121879,0,32752,51,99960,35.00,-7.22,-5.00
121901,0,32752,57,99960,35.00,-7.24,-5.01
121923,0,32240,103,99960,35.00,-7.20,-4.96
121945,0,32240,163,99960,35.00,-7.26,-4.99
121967,843,32240,231,99960,35.00,-7.22,-4.96
122515,251,32752,189,99960,35.29,-7.25,-4.99
122551,2931,52632,189,99960,35.00,-7.23,-4.99
122573,3692,53144,181,99960,35.00,-7.22,-4.99
122595,2846,53848,175,99960,35.00,-7.23,-4.96
122617,3080,53336,185,99960,35.00,-7.19,-4.97
122639,2203,54616,165,99960,35.00,-7.24,-5.02
122661,1259,55128,131,99960,35.00,-7.16,-4.98
122683,3863,55128,149,99960,35.00,-7.17,-4.98
122705,3854,56024,139,99960,35.00,-7.28,-5.00
122727,3859,57400,146,99960,35.00,-7.22,-4.96
122749,3851,58680,147,99960,35.00,-7.22,-4.99
122791,3851,61368,159,99960,35.00,-7.26,-4.98
122813,3821,65540,181,99960,35.00,-7.25,-4.99
122835,3555,66820,173,99960,35.00,-7.26,-4.97
122857,3831,67332,181,99960,35.00,-7.24,-4.96
122879,3631,67332,171,99960,35.00,-7.24,-5.00
122901,2478,67716,139,99960,35.00,-7.24,-4.96
122923,2373,67332,113,99960,35.00,-7.26,-4.97
122945,3102,65528,136,99960,35.00,-7.24,-4.99
122967,2521,64248,119,99960,35.00,-7.23,-5.00
122989,2125,62840,135,99960,35.00,-7.23,-4.95
123032,2344,61560,139,99960,35.00,-7.24,-4.96
123054,2459,60088,181,99960,35.00,-7.23,-4.97
123076,2164,60088,175,99960,35.00,-7.23,-5.02
123098,1848,60088,185,99960,35.00,-7.24,-4.96
123120,1529,59576,153,99960,35.00,-7.22,-4.96
123142,2895,59576,171,99960,35.00,-7.19,-4.98
123164,3482,59576,173,99960,35.00,-7.24,-4.99
123186,2205,59576,147,99960,35.00,-7.24,-4.97
123208,1935,59576,125,99960,35.00,-7.25,-4.99
123230,1945,59576,139,99960,35.00,-7.21,-4.97
123272,1813,59576,147,99960,35.00,-7.20,-5.00
123294,947,59576,140,99960,35.00,-7.20,-4.97
123316,1467,59192,160,99960,35.00,-7.19,-4.98
123338,1433,59192,163,99960,35.00,-7.24,-5.00
123360,1419,59192,148,99960,35.00,-7.25,-4.97
123382,229,59192,117,99960,35.00,-7.24,-4.99
123404,787,59576,120,99960,35.00,-7.17,-4.96
123426,1367,62072,109,99960,35.00,-7.23,-4.97
123448,1419,64248,101,99960,35.00,-7.23,-4.98
123470,1101,65016,117,99960,35.00,-7.23,-4.96
123492,1853,63736,142,99960,35.00,-7.27,-5.00
123533,2285,61368,166,99960,35.00,-7.22,-5.00
123555,1339,59576,141,99960,35.00,-7.22,-5.00
123577,1326,59192,147,99960,35.00,-7.21,-4.95
123599,2293,59192,171,99960,35.00,-7.25,-4.96
123621,1863,59192,159,99960,35.00,-7.22,-4.98
123643,1605,59192,138,99960,35.00,-7.22,-4.99
123665,1715,59192,119,99960,35.00,-7.22,-5.00
123687,2271,59192,125,99960,35.00,-7.23,-4.98
123709,1915,59192,122,99960,35.00,-7.22,-4.96
123731,1819,59192,134,99960,35.00,-7.20,-5.00
123774,1526,59192,133,99960,35.00,-7.24,-4.91
123796,2009,59192,160,99960,35.00,-7.22,-4.98
123818,3321,59192,210,99960,35.00,-7.22,-4.96
123840,1589,59192,172,99960,35.00,-7.21,-4.98
123862,1395,60856,147,99960,35.00,-7.25,-4.96
123884,2201,61560,139,99960,35.00,-7.24,-4.94
123906,3813,61560,176,99960,35.00,-7.22,-4.97
123928,2421,60088,152,99960,35.00,-7.24,-4.96
123950,1752,59576,133,99960,35.00,-7.27,-5.02
123972,1433,59192,135,99960,35.00,-7.23,-5.00
124556,2639,59576,173,99960,35.70,-7.23,-4.99
124596,2025,57912,171,99960,35.00,-7.21,-4.97
124618,1514,57304,173,99960,35.00,-7.20,-4.97
124640,2127,57912,184,99960,35.00,-7.26,-5.00
124662,661,57304,158,99960,35.00,-7.21,-5.00
124684,3861,54616,223,99960,35.00,-7.23,-4.95
124706,2185,53144,156,99960,35.00,-7.19,-4.99
124728,1637,52632,135,99960,35.00,-7.21,-5.01
124750,1641,52632,135,99960,35.00,-7.21,-4.98
124772,1863,52632,143,99960,35.00,-7.24,-4.95
124794,538,50968,121,99960,35.00,-7.24,-4.96
124836,1291,50968,168,99960,35.00,-7.23,-4.95
124858,1205,55128,169,99960,35.00,-7.23,-5.00
124880,791,57400,167,99960,35.00,-7.24,-4.96
124902,537,58680,155,99960,35.00,-7.28,-4.97
124924,0,57912,135,99960,35.00,-7.21,-4.93
124946,1,59192,136,99960,35.00,-7.24,-4.96
124968,0,60856,111,99960,35.00,-7.22,-4.97
124990,2917,60856,164,99960,35.00,-7.23,-4.96
125576,3087,59576,143,99960,35.18,-7.25,-4.94
125618,3847,30576,187,99960,35.00,-7.20,-5.04
125640,2684,27312,173,99960,35.00,-7.24,-4.96
125662,1238,27312,152,99960,35.00,-7.22,-5.02
125684,133,28080,149,99960,35.00,-7.21,-4.98
125706,2571,28080,183,99960,35.00,-7.27,-4.96
125728,3451,28592,179,99960,35.00,-7.25,-4.99
125750,3769,28784,169,99960,35.00,-7.20,-5.01
125772,2457,29296,141,99960,35.00,-7.18,-5.04
125794,3446,30064,152,99960,35.00,-7.25,-4.96
125816,2683,62072,143,99960,35.00,-7.23,-4.95
125859,2775,83220,157,99960,35.00,-7.23,-4.99
125881,1920,63352,140,99960,35.00,-7.21,-4.96
125903,2547,63352,211,99960,35.00,-7.24,-4.99
125925,3848,63352,200,99960,35.00,-7.26,-4.94
125947,3847,63352,184,99960,35.00,-7.24,-4.98
125969,2937,63352,151,99960,35.00,-7.23,-5.00
125991,1309,63352,107,99960,35.00,-7.22,-4.97
126597,2423,63352,127,99960,35.42,-7.26,-5.00
126628,1711,12384,152,99960,35.00,-7.21,-4.95
126650,1435,13664,143,99960,35.00,-7.24,-5.02
126672,1724,14560,131,99960,35.00,-7.16,-5.00
126694,2313,16352,147,99960,35.00,-7.25,-4.98
126716,1949,17680,135,99960,35.00,-7.23,-4.95
126738,991,18576,126,99960,35.00,-7.21,-5.00
126760,659,19856,126,99960,35.00,-7.21,-4.97
126801,574,21072,149,99960,35.00,-7.30,-4.97
126823,249,28784,151,99960,35.00,-7.26,-4.94
126845,735,30576,149,99960,35.00,-7.24,-4.96
126867,1449,32240,168,99960,35.00,-7.19,-4.98
126889,1183,32752,149,99960,35.00,-7.20,-4.99
126911,1081,32752,135,99960,35.00,-7.19,-5.01
126933,1097,32776,119,99960,35.00,-7.28,-4.93
126955,1511,33288,123,99960,35.00,-7.21,-4.96
126977,1343,34056,111,99960,35.00,-7.21,-4.98
126999,2211,34568,137,99960,35.00,-7.21,-4.98
127042,2250,34952,137,99960,35.00,-7.26,-5.01
127064,0,35464,119,99960,35.00,-7.15,-4.96
127086,0,36744,117,99960,35.00,-7.28,-4.94
127108,0,36744,117,99960,35.00,-7.24,-4.95
127130,1085,36744,124,99960,35.00,-7.20,-4.97
127152,1579,36936,119,99960,35.00,-7.22,-5.01
127174,1589,36936,105,99960,35.00,-7.22,-4.98
127196,631,36936,92,99960,35.00,-7.22,-4.99
127218,1369,37448,115,99960,35.00,-7.26,-4.97
127240,1943,37448,139,99960,35.00,-7.23,-4.95
127282,1647,38216,136,99960,35.00,-7.22,-4.99
127304,0,37448,104,99960,35.00,-7.20,-4.99
127326,2413,38728,178,99960,35.00,-7.23,-4.97
127348,2216,39112,191,99960,35.00,-7.25,-4.96
127370,215,39624,134,99960,35.00,-7.25,-4.98
127392,3419,40392,219,99960,35.00,-7.21,-5.00
127414,2441,40392,173,99960,35.00,-7.19,-4.97
127436,1179,40392,143,99960,35.00,-7.23,-5.00
127458,3861,40904,197,99960,35.00,-7.24,-5.00
127480,3480,40904,187,99960,35.00,-7.29,-4.97
127502,3766,41000,217,99960,35.00,-7.20,-4.97
127543,3115,41000,215,99960,35.00,-7.22,-4.95
127565,3821,41000,208,99960,35.00,-7.26,-4.97
127587,3197,41512,203,99960,35.00,-7.25,-4.93
127609,2763,41512,187,99960,35.00,-7.21,-4.99
127631,2701,41512,171,99960,35.00,-7.21,-4.98
127653,3251,41512,155,99960,35.00,-7.25,-5.03
127675,2879,42280,135,99960,35.00,-7.22,-5.00
127697,2151,42280,121,99960,35.00,-7.24,-4.95
127719,2503,42280,119,99960,35.00,-7.23,-4.96
127741,2413,42280,95,99960,35.00,-7.23,-4.93
127783,1757,42280,89,99960,35.00,-7.24,-4.92
127805,1545,42280,95,99960,35.00,-7.24,-4.96
127827,1234,42280,75,99960,35.00,-7.24,-4.96
127849,941,42280,72,99960,35.00,-7.24,-4.98
127871,0,42280,69,99960,35.00,-7.24,-5.03
127893,346,42280,88,99960,35.00,-7.22,-4.98
127915,1107,42792,69,99960,35.00,-7.20,-4.96
127937,955,42792,45,99960,35.00,-7.21,-4.98
127959,41,42792,24,99960,35.00,-7.26,-4.94
127981,0,42792,31,99960,35.00,-7.23,-4.96
128383,0,42792,29,99960,36.28,-7.23,-4.96
128425,2285,42792,199,99960,35.00,-7.26,-4.99
128447,2015,42792,184,99960,35.00,-7.21,-4.97
128469,1213,42792,175,99960,35.00,-7.23,-5.00
128491,1549,42792,170,99960,35.00,-7.21,-4.97
128513,1503,43176,143,99960,35.00,-7.21,-4.97
128535,1557,42792,120,99960,35.00,-7.26,-4.98
128557,1378,43176,109,99960,35.00,-7.29,-5.02
128579,925,43176,100,99960,35.00,-7.15,-4.92
128601,729,43176,115,99960,35.00,-7.28,-4.99
128623,659,43176,147,99960,35.00,-7.37,-5.11
128665,681,42792,164,99960,35.00,-7.26,-4.99
128687,1481,42792,169,99960,35.00,-7.28,-5.05
128709,1619,42792,180,99960,35.00,-7.23,-4.98
128731,1685,42792,186,99960,35.00,-7.24,-4.93
128753,1510,42792,181,99960,35.00,-7.19,-4.93
128775,1385,42792,181,99960,35.00,-7.30,-5.04
128797,1990,42792,180,99960,35.00,-7.21,-4.92
128819,2147,42792,175,99960,35.00,-7.12,-4.91
128841,1547,42792,166,99960,35.00,-7.22,-4.99
128863,1045,42792,181,99960,35.00,-7.34,-5.07
128885,1609,42792,181,99960,35.00,-7.42,-5.08
128926,574,42792,169,99960,35.00,-7.21,-4.99
128948,506,42792,151,99960,35.00,-7.22,-4.98
128970,1131,42792,133,99960,35.00,-7.24,-4.98
128992,174,42792,133,99960,35.00,-7.14,-4.95
129403,303,42792,150,99960,35.82,-7.28,-5.02
129431,3871,42280,262,99960,35.00,-7.16,-4.93
129453,2409,41512,267,99960,35.00,-7.64,-5.34
129475,2278,42280,264,99960,35.00,-7.61,-5.27
129497,1779,42280,249,99960,35.00,-7.11,-4.87
129519,1447,42280,227,99960,35.00,-7.19,-4.92
129541,1157,42280,221,99960,35.00,-7.13,-4.89
129563,1147,42280,233,99960,35.00,-7.23,-4.99
129585,1196,41512,253,99960,35.00,-7.33,-4.99
129607,1109,42280,271,99960,35.00,-7.22,-4.97
129648,906,42280,313,99960,35.00,-7.19,-4.99
129670,971,41512,338,99960,35.00,-7.28,-4.98
129692,853,41512,355,99960,35.00,-7.23,-4.97
129714,1070,41512,372,99960,35.00,-7.20,-4.96
129736,1461,41512,411,99960,35.00,-7.25,-4.98
129758,1841,41000,458,99960,35.00,-7.24,-4.98
129780,1677,41000,469,99960,35.00,-7.24,-4.95
129802,1491,40904,491,99960,35.00,-7.22,-4.97
129824,1397,40904,505,99960,35.00,-7.21,-4.96
129846,398,40904,443,99960,35.00,-7.20,-5.00
129888,0,40904,365,99960,35.00,-7.22,-4.98
129910,0,41000,315,99960,35.00,-7.21,-4.98
129932,0,41000,285,99960,35.00,-7.24,-5.00
129954,0,41512,263,99960,35.00,-7.25,-4.99
129976,0,41512,233,99960,35.00,-7.23,-5.00
129998,0,41512,215,99960,35.00,-7.23,-4.96
130020,0,41512,219,99960,35.00,-7.21,-4.94
130042,995,41512,229,99960,35.00,-7.24,-4.96
130064,1693,41512,233,99960,35.00,-7.25,-4.98
130086,2259,41512,253,99960,35.00,-7.21,-4.97
130108,1901,41512,238,99960,35.00,-7.20,-4.99
130149,121,41512,189,99960,35.00,-7.19,-4.92
130171,0,41000,188,99960,35.00,-7.24,-5.01
130193,455,41000,216,99960,35.00,-7.19,-4.96
130215,517,41000,184,99960,35.00,-7.22,-4.97
130237,0,41512,159,99960,35.00,-7.22,-4.98
130259,0,41000,178,99960,35.00,-7.23,-5.00
130281,0,41512,175,99960,35.00,-7.21,-4.96
130303,0,41512,233,99960,35.00,-7.19,-4.92
130325,0,41512,205,99960,35.00,-7.24,-4.95
130347,1306,41512,171,99960,35.00,-7.24,-4.97
130390,345,41512,124,99960,35.00,-7.26,-4.98
130412,39,41512,146,99960,35.00,-7.27,-4.97
130434,243,41512,155,99960,35.00,-7.19,-4.99
130456,407,41512,152,99960,35.00,-7.25,-4.98
130478,327,41512,142,99960,35.00,-7.23,-4.98
130500,765,41512,165,99960,35.00,-7.28,-4.95
130522,1173,41512,157,99960,35.00,-7.23,-4.96
130544,283,41512,103,99960,35.00,-7.27,-5.00
130566,0,41512,79,99960,35.00,-7.22,-4.98
130588,0,41512,90,99960,35.00,-7.20,-4.96
130630,0,41512,99,99960,35.00,-7.22,-5.00
130652,489,41000,125,99960,35.00,-7.22,-4.98
130674,1421,41000,171,99960,35.00,-7.23,-4.97
130696,1804,41000,175,99960,35.00,-7.23,-5.00
130718,0,40904,180,99960,35.00,-7.21,-4.98
130740,0,41512,175,99960,35.00,-7.25,-4.94
130762,0,41512,100,99960,35.00,-7.24,-4.99
130784,0,41512,85,99960,35.00,-7.21,-4.98
130806,0,42280,87,99960,35.00,-7.23,-4.97
130828,1815,41512,137,99960,35.00,-7.23,-5.02
130850,2171,41512,147,99960,35.00,-7.22,-4.95
130891,2422,41512,171,99960,35.00,-7.27,-4.96
130913,3823,41512,231,99960,35.00,-7.23,-5.01
130935,3855,41512,243,99960,35.00,-7.24,-4.98
130957,3861,41512,211,99960,35.00,-7.22,-5.01
130979,2293,41512,139,99960,35.00,-7.27,-4.99
131699,1893,41512,119,99960,35.26,-7.24,-4.97
131733,2027,40904,179,99960,35.00,-7.17,-4.97
131755,1183,40904,152,99960,35.00,-7.21,-4.97
131777,1213,40904,157,99960,35.00,-7.24,-4.96
131799,1407,40904,173,99960,35.00,-7.22,-4.97
131821,1753,40904,169,99960,35.00,-7.23,-4.96
131843,1862,41000,157,99960,35.00,-7.25,-5.01
131865,1915,41000,148,99960,35.00,-7.22,-5.00
131887,1716,41000,141,99960,35.00,-7.24,-5.00
131909,1351,41000,139,99960,35.00,-7.21,-4.94
131931,1273,41000,139,99960,35.00,-7.26,-4.96
131974,1191,41000,139,99960,35.00,-7.22,-4.96
131996,1253,41000,171,99960,35.00,-7.18,-4.94
132720,1622,41000,179,99960,35.78,-7.25,-4.95
132756,1688,41000,158,99960,35.00,-7.22,-5.01
132778,1404,41000,147,99960,35.00,-7.24,-4.98
132800,1576,41000,159,99960,35.00,-7.22,-4.99
132822,1865,41000,167,99960,35.00,-7.23,-4.96
132844,2086,41000,164,99960,35.00,-7.24,-4.98
132866,2189,41000,152,99960,35.00,-7.20,-4.97
132888,2129,41000,127,99960,35.00,-7.22,-4.94
132910,2091,41000,121,99960,35.00,-7.25,-4.98
132932,2007,41000,122,99960,35.00,-7.24,-5.02
132954,1719,41000,127,99960,35.00,-7.21,-5.00
132996,1540,40904,140,99960,35.00,-7.21,-4.94
133740,1375,40904,152,99960,35.99,-7.21,-5.00
133778,1691,40904,163,99960,35.00,-7.22,-4.98
133800,1529,40904,157,99960,35.00,-7.23,-4.95
133822,1691,40904,159,99960,35.00,-7.22,-4.97
133844,1875,40904,168,99960,35.00,-7.23,-4.98
133866,1981,40904,157,99960,35.00,-7.23,-4.99
133888,2045,40904,153,99960,35.00,-7.23,-5.00
133910,1983,40904,137,99960,35.00,-7.25,-4.98
133932,1846,40904,126,99960,35.00,-7.24,-4.98
133954,1737,40904,123,99960,35.00,-7.21,-5.00
133976,1678,40904,127,99960,35.00,-7.20,-4.97
133998,1555,40904,141,99960,35.00,-7.24,-4.98
134039,1513,40904,155,99960,35.00,-7.20,-5.01
134061,1524,40904,155,99960,35.00,-7.25,-5.00
134083,1684,40904,165,99960,35.00,-7.22,-4.99
134105,1886,40904,169,99960,35.00,-7.23,-4.97
134127,1929,40904,157,99960,35.00,-7.21,-4.99
134149,1909,40904,145,99960,35.00,-7.21,-4.98
134171,1947,40904,137,99960,35.00,-7.19,-4.98
134193,1876,40904,132,99960,35.00,-7.25,-4.97
134215,1823,40904,123,99960,35.00,-7.26,-5.00
134237,1692,40904,137,99960,35.00,-7.22,-4.96
134279,1573,40904,139,99960,35.00,-7.22,-4.97
134301,1483,40904,154,99960,35.00,-7.22,-4.99
134323,1553,40904,158,99960,35.00,-7.22,-4.95
134345,1745,40904,163,99960,35.00,-7.23,-4.98
134367,1960,40904,159,99960,35.00,-7.23,-4.96
134389,2045,40904,151,99960,35.00,-7.19,-4.98
134411,2067,40904,142,99960,35.00,-7.24,-5.00
134433,1913,40904,137,99960,35.00,-7.21,-5.00
134455,1767,40904,123,99960,35.00,-7.25,-4.99
134477,1672,40904,127,99960,35.00,-7.26,-4.98
134499,1594,40904,135,99960,35.00,-7.20,-4.97
134540,1559,40904,150,99960,35.00,-7.26,-4.95
134562,1517,40392,156,99960,35.00,-7.26,-4.97
134584,1619,40392,157,99960,35.00,-7.23,-4.94
134606,1789,40392,163,99960,35.00,-7.20,-4.96
134628,1865,40904,157,99960,35.00,-7.24,-4.99
134650,1963,40904,145,99960,35.00,-7.25,-4.96
134672,1980,40904,135,99960,35.00,-7.25,-4.98
134694,1911,40904,125,99960,35.00,-7.22,-4.98
134716,1813,40904,133,99960,35.00,-7.25,-4.97
134738,1628,40904,124,99960,35.00,-7.24,-4.98
134781,1469,40904,137,99960,35.00,-7.25,-4.98
134803,1607,40392,155,99960,35.00,-7.24,-4.97
134825,1683,40904,160,99960,35.00,-7.25,-4.96
134847,1804,40904,163,99960,35.00,-7.22,-5.01
134869,1951,40904,159,99960,35.00,-7.20,-4.94
134891,1995,40904,145,99960,35.00,-7.20,-4.99
134913,2025,40904,135,99960,35.00,-7.22,-4.95
134935,1847,40904,123,99960,35.00,-7.20,-4.96
134957,1763,40904,124,99960,35.00,-7.24,-4.94
134979,1575,40904,126,99960,35.00,-7.23,-4.96
135021,1405,40904,137,99960,35.00,-7.22,-5.00
135043,1533,40904,153,99960,35.00,-7.25,-4.96
135065,1631,40904,157,99960,35.00,-7.24,-4.98
135087,1819,40904,165,99960,35.00,-7.22,-4.96
135109,1892,40904,153,99960,35.00,-7.21,-4.92
135131,1980,40904,149,99960,35.00,-7.22,-4.96
135153,1995,40904,131,99960,35.00,-7.25,-4.98
135175,1879,40904,127,99960,35.00,-7.24,-4.98
135197,1725,40904,121,99960,35.00,-7.24,-4.98
135219,1690,40904,125,99960,35.00,-7.25,-4.98
135241,1545,40904,134,99960,35.00,-7.22,-4.97
135282,1529,41000,147,99960,35.00,-7.26,-4.95
135304,1564,40904,153,99960,35.00,-7.23,-5.00
135326,1673,40904,157,99960,35.00,-7.22,-5.00
