timestamp,ecg,gsr,gas,pulse,temp,acc_x,acc_y
453554,1635,21840,171,0,35.00,-7.28,-4.86
453576,1589,21840,154,0,35.00,-7.25,-4.83
453598,1945,22352,149,0,35.00,-7.25,-4.85
453620,2137,22352,142,0,35.00,-7.24,-4.89
453642,2059,21840,125,0,35.00,-7.25,-4.89
453683,1763,22352,125,0,35.00,-7.26,-4.87
453705,1237,22352,121,0,35.00,-7.28,-4.85
453727,1494,22352,137,0,35.00,-7.23,-4.86
453749,1649,22352,158,0,35.00,-7.26,-4.81
453771,1559,22352,157,0,35.00,-7.28,-4.86
453793,1420,22352,159,0,35.00,-7.27,-4.85
453815,1738,22352,158,0,35.00,-7.24,-4.87
453837,1918,22352,151,0,35.00,-7.25,-4.84
453859,2042,22352,138,0,35.00,-7.26,-4.86
453881,1679,22352,121,0,35.00,-7.25,-4.87
453924,2031,22352,136,0,35.00,-7.23,-4.86
453946,1553,21840,133,0,35.00,-7.24,-4.83
453968,1617,22352,155,0,35.00,-7.27,-4.85
453990,2043,21840,169,0,35.00,-7.22,-4.86
454409,1789,21840,166,0,35.50,-7.26,-4.84
454445,1646,21072,168,0,35.00,-7.22,-4.89
454467,1749,21072,150,0,35.00,-7.27,-4.87
454489,1515,21072,159,0,35.00,-7.24,-4.87
454511,1523,21072,167,0,35.00,-7.23,-4.87
454533,1687,21072,160,0,35.00,-7.25,-4.90
454555,1778,21072,151,0,35.00,-7.23,-4.88
454577,1748,21840,139,0,35.00,-7.25,-4.85
454599,1967,21840,136,0,35.00,-7.29,-4.84
454621,1884,21840,125,0,35.00,-7.22,-4.89
454643,1893,21840,135,0,35.00,-7.24,-4.88
454686,1663,21840,137,0,35.00,-7.25,-4.83
454708,1511,21072,153,0,35.00,-7.24,-4.88
454730,1609,21072,157,0,35.00,-7.25,-4.85
454752,1945,21072,163,0,35.00,-7.26,-4.86
454774,1763,21072,147,0,35.00,-7.20,-4.87
454796,1723,21840,138,0,35.00,-7.25,-4.84
454818,1427,22352,119,0,35.00,-7.27,-4.81
454840,1389,22352,114,0,35.00,-7.24,-4.85
454862,1510,22352,111,0,35.00,-7.23,-4.87
454884,1782,21840,134,0,35.00,-7.24,-4.87
454926,1688,21840,139,0,35.00,-7.27,-4.85
454948,1277,21072,141,0,35.00,-7.24,-4.87
454970,1059,20560,138,0,35.00,-7.30,-4.86
454992,1179,20368,137,0,35.00,-7.28,-4.87
455430,3448,20368,170,0,35.46,-7.26,-4.88
455467,1080,19088,151,0,35.00,-7.23,-4.86
455489,3547,18576,207,0,35.00,-7.25,-4.89
455511,573,18576,115,0,35.00,-7.23,-4.86
455533,0,18576,140,0,35.00,-7.25,-4.85
455555,2042,18192,179,0,35.00,-7.26,-4.83
455577,1404,18192,123,0,35.00,-7.24,-4.87
455599,947,18192,121,0,35.00,-7.24,-4.83
455621,1981,18192,135,0,35.00,-7.30,-4.83
455643,618,18192,141,0,35.00,-7.22,-4.88
455665,2279,18192,165,0,35.00,-7.25,-4.90
455687,0,18192,143,0,35.00,-7.30,-4.86
455728,3807,18192,222,0,35.00,-7.29,-4.83
455750,3795,18192,211,0,35.00,-7.27,-4.88
455772,1765,18192,143,0,35.00,-7.26,-4.87
455794,2950,18576,167,0,35.00,-7.22,-4.89
455816,2401,18576,153,0,35.00,-7.32,-4.89
455838,2159,18192,141,0,35.00,-7.24,-4.86
455860,1899,18576,137,0,35.00,-7.24,-4.89
455882,1471,18576,137,0,35.00,-7.27,-4.86
455904,2521,18576,167,0,35.00,-7.23,-4.86
455926,1959,18576,169,0,35.00,-7.26,-4.85
455969,1706,18576,175,0,35.00,-7.26,-4.86
455991,1787,18576,173,0,35.00,-7.29,-4.88
456706,2265,18576,174,0,35.71,-7.26,-4.83
456730,1275,19088,168,0,35.00,-7.24,-4.84
456752,1547,19088,159,0,35.00,-7.22,-4.87
456774,1693,19088,141,0,35.00,-7.25,-4.86
456796,1735,19088,141,0,35.00,-7.24,-4.90
456818,1627,19088,132,0,35.00,-7.25,-4.84
456840,1620,19088,139,0,35.00,-7.21,-4.88
456862,1605,19088,151,0,35.00,-7.24,-4.83
456884,1383,19088,153,0,35.00,-7.23,-4.84
456906,1289,19088,164,0,35.00,-7.23,-4.89
456928,1553,19088,175,0,35.00,-7.25,-4.81
456950,1747,19088,167,0,35.00,-7.23,-4.86
456991,1517,19088,149,0,35.00,-7.25,-4.82
457728,1478,19088,142,0,35.18,-7.26,-4.86
457753,1631,18192,157,0,35.00,-7.23,-4.85
457775,1775,18576,127,0,35.00,-7.28,-4.85
457797,1848,18576,133,0,35.00,-7.26,-4.88
457819,1689,18576,139,0,35.00,-7.23,-4.84
457841,1614,18576,150,0,35.00,-7.28,-4.87
457863,1619,18576,163,0,35.00,-7.22,-4.86
457885,1534,18576,168,0,35.00,-7.23,-4.85
457907,1561,18576,171,0,35.00,-7.24,-4.88
457929,1639,18576,160,0,35.00,-7.28,-4.86
457951,1524,18576,151,0,35.00,-7.24,-4.83
457994,1779,18576,141,0,35.00,-7.29,-4.86
458749,1757,18192,126,0,35.12,-7.24,-4.85
458775,1275,19088,139,0,35.00,-7.25,-4.88
458797,1301,19088,132,0,35.00,-7.23,-4.83
458819,1785,19088,151,0,35.00,-7.26,-4.86
458841,1753,19088,155,0,35.00,-7.24,-4.87
458863,1325,19088,157,0,35.00,-7.25,-4.85
458885,1183,19856,165,0,35.00,-7.26,-4.87
458907,1721,19856,173,0,35.00,-7.27,-4.85
458929,2002,19856,159,0,35.00,-7.23,-4.87
458951,1927,19088,147,0,35.00,-7.25,-4.88
458973,1400,19856,124,0,35.00,-7.28,-4.87
458995,1444,19856,127,0,35.00,-7.23,-4.82
459036,1951,19856,139,0,35.00,-7.24,-4.87
459058,1447,19856,137,0,35.00,-7.25,-4.88
459080,1791,19088,157,0,35.00,-7.27,-4.85
459102,1839,19088,169,0,35.00,-7.23,-4.85
459124,1852,19088,173,0,35.00,-7.28,-4.88
459146,1912,19856,173,0,35.00,-7.25,-4.80
459168,1807,19856,164,0,35.00,-7.30,-4.82
459190,1823,19856,152,0,35.00,-7.26,-4.88
459212,1947,19856,142,0,35.00,-7.23,-4.86
459234,1983,19856,145,0,35.00,-7.25,-4.87
459256,2077,19856,147,0,35.00,-7.25,-4.87
459297,2073,19856,154,0,35.00,-7.30,-4.84
459319,1663,19856,147,0,35.00,-7.24,-4.84
459341,1515,19856,159,0,35.00,-7.28,-4.84
459363,1910,19856,179,0,35.00,-7.25,-4.85
459385,1717,19856,175,0,35.00,-7.25,-4.85
459407,1683,19856,171,0,35.00,-7.24,-4.83
459429,1711,19856,163,0,35.00,-7.22,-4.90
459451,1941,19856,149,0,35.00,-7.24,-4.88
459473,1916,19856,148,0,35.00,-7.24,-4.87
459495,1867,19856,139,0,35.00,-7.28,-4.90
459537,1571,19856,141,0,35.00,-7.21,-4.85
459559,1571,19856,146,0,35.00,-7.23,-4.83
459581,1427,19856,155,0,35.00,-7.26,-4.89
459603,1237,19856,154,0,35.00,-7.24,-4.85
459625,1561,19088,167,0,35.00,-7.29,-4.83
459647,1767,19856,155,0,35.00,-7.30,-4.87
459669,1813,19856,147,0,35.00,-7.26,-4.83
459691,1574,19856,122,0,35.00,-7.28,-4.85
459713,1339,19856,125,0,35.00,-7.26,-4.85
459735,1511,19856,133,0,35.00,-7.23,-4.88
459757,1818,19856,149,0,35.00,-7.26,-4.86
459798,1699,19856,152,0,35.00,-7.22,-4.89
459820,1651,19088,159,0,35.00,-7.24,-4.87
459842,1775,19088,171,0,35.00,-7.25,-4.91
459864,1560,19088,169,0,35.00,-7.25,-4.89
459886,1741,19088,171,0,35.00,-7.23,-4.87
459908,1875,19856,159,0,35.00,-7.23,-4.91
459930,1843,19856,142,0,35.00,-7.23,-4.88
459952,1928,19856,150,0,35.00,-7.25,-4.88
459974,1960,19856,143,0,35.00,-7.24,-4.88
459996,2127,19088,149,0,35.00,-7.28,-4.87
460535,2035,19856,156,0,35.31,-7.25,-4.86
460565,1875,19856,149,0,35.00,-7.26,-4.87
460587,1779,19856,155,0,35.00,-7.24,-4.87
460609,1945,19856,143,0,35.00,-7.21,-4.83
460631,1845,19856,138,0,35.00,-7.25,-4.88
460653,1819,19856,132,0,35.00,-7.25,-4.83
460675,1672,19856,133,0,35.00,-7.20,-4.84
460697,1672,19856,138,0,35.00,-7.26,-4.87
460719,1647,19856,157,0,35.00,-7.28,-4.86
460761,1663,19856,168,0,35.00,-7.28,-4.86
460783,1651,19088,167,0,35.00,-7.22,-4.86
460805,1757,19856,166,0,35.00,-7.24,-4.88
460827,1769,19856,150,0,35.00,-7.25,-4.86
460849,1913,19856,142,0,35.00,-7.24,-4.85
460871,1959,19856,137,0,35.00,-7.25,-4.90
460893,1868,19856,133,0,35.00,-7.27,-4.87
460915,1927,19856,137,0,35.00,-7.26,-4.89
460937,1657,19856,141,0,35.00,-7.22,-4.88
460959,1562,19856,155,0,35.00,-7.26,-4.90
461557,1517,19856,159,0,35.73,-7.26,-4.89
461587,1635,19856,155,0,35.00,-7.26,-4.87
461609,1798,19856,120,0,35.00,-7.25,-4.84
461631,1657,20368,117,0,35.00,-7.30,-4.84
461653,1612,20368,121,0,35.00,-7.25,-4.83
461675,1607,20368,137,0,35.00,-7.26,-4.86
461697,1624,20368,143,0,35.00,-7.24,-4.87
461719,1699,20368,159,0,35.00,-7.23,-4.84
461741,1644,20368,163,0,35.00,-7.28,-4.87
461783,1735,20368,159,0,35.00,-7.24,-4.89
461805,1703,20368,142,0,35.00,-7.25,-4.91
461827,1867,20368,141,0,35.00,-7.27,-4.89
461849,2039,20368,137,0,35.00,-7.28,-4.86
461871,2005,20368,125,0,35.00,-7.24,-4.85
461893,1961,20368,135,0,35.00,-7.26,-4.84
461915,1906,20368,142,0,35.00,-7.27,-4.86
461937,1797,20368,151,0,35.00,-7.28,-4.83
461959,1751,20368,167,0,35.00,-7.26,-4.89
461981,1675,20368,166,0,35.00,-7.24,-4.87
462578,1828,20368,167,0,35.87,-7.29,-4.85
462609,1675,21072,145,0,35.00,-7.23,-4.86
462631,1476,21072,116,0,35.00,-7.23,-4.86
462653,1336,21840,125,0,35.00,-7.24,-4.85
462675,1434,21840,136,0,35.00,-7.21,-4.87
462697,1427,22352,151,0,35.00,-7.26,-4.90
462719,995,22352,146,0,35.00,-7.28,-4.84
462741,1419,22352,155,0,35.00,-7.28,-4.85
462763,1453,22352,145,0,35.00,-7.24,-4.84
462785,1751,22352,127,0,35.00,-7.25,-4.85
462826,1519,22736,106,0,35.00,-7.24,-4.87
462848,1319,22736,105,0,35.00,-7.25,-4.86
462870,1773,22736,117,0,35.00,-7.27,-4.85
462892,1829,22736,123,0,35.00,-7.30,-4.92
462914,1739,22736,134,0,35.00,-7.23,-4.87
462936,1544,22736,144,0,35.00,-7.23,-4.86
462958,1564,22736,149,0,35.00,-7.24,-4.87
462980,1513,22736,153,0,35.00,-7.24,-4.85
463344,1650,22736,144,0,35.35,-7.27,-4.85
463372,1802,22736,137,0,35.00,-7.25,-4.83
463394,1741,22736,141,0,35.00,-7.25,-4.84
463416,1823,22736,162,0,35.00,-7.26,-4.84
463438,1809,22352,165,0,35.00,-7.25,-4.88
463460,1749,22352,165,0,35.00,-7.22,-4.86
463482,1399,22352,151,0,35.00,-7.25,-4.87
463504,1780,22352,152,0,35.00,-7.25,-4.89
463526,1753,22352,124,0,35.00,-7.23,-4.86
463568,1517,22352,125,0,35.00,-7.24,-4.87
463590,1225,22352,114,0,35.00,-7.25,-4.86
463612,3223,22352,169,0,35.00,-7.26,-4.83
463634,1069,22352,123,0,35.00,-7.27,-4.85
463656,1897,22352,159,0,35.00,-7.24,-4.86
463678,1869,22352,171,0,35.00,-7.27,-4.87
463700,1311,22352,152,0,35.00,-7.26,-4.85
463722,857,22736,139,0,35.00,-7.23,-4.87
463744,915,22736,134,0,35.00,-7.25,-4.83
463766,1621,22736,137,0,35.00,-7.24,-4.84
463808,2131,22736,133,0,35.00,-7.28,-4.85
463830,1771,22736,123,0,35.00,-7.27,-4.84
463852,1673,22736,136,0,35.00,-7.24,-4.85
463874,1747,22736,151,0,35.00,-7.25,-4.85
463896,1635,22736,157,0,35.00,-7.25,-4.87
463918,1715,22736,163,0,35.00,-7.27,-4.81
463940,1705,22736,159,0,35.00,-7.27,-4.83
463962,1780,22736,149,0,35.00,-7.24,-4.87
463984,1851,22736,138,0,35.00,-7.26,-4.86
464365,1991,22736,125,0,36.04,-7.25,-4.88
464393,2025,22352,139,0,35.00,-7.26,-4.88
464415,2093,22352,167,0,35.00,-7.22,-4.86
464437,2967,22736,186,0,35.00,-7.24,-4.80
464459,1673,22736,151,0,35.00,-7.26,-4.86
464481,1993,22736,169,0,35.00,-7.23,-4.89
464503,1352,22736,147,0,35.00,-7.22,-4.85
464525,1705,22736,133,0,35.00,-7.25,-4.89
464547,1691,22736,121,0,35.00,-7.28,-4.85
464569,1061,22352,119,0,35.00,-7.28,-4.84
464610,1077,22352,139,0,35.00,-7.25,-4.87
464632,2153,22352,158,0,35.00,-7.24,-4.83
464654,2803,22352,175,0,35.00,-7.22,-4.83
464676,253,22352,135,0,35.00,-7.23,-4.86
464698,1043,22352,167,0,35.00,-7.21,-4.84
464720,1031,22352,165,0,35.00,-7.29,-4.89
464742,2123,22352,167,0,35.00,-7.22,-4.84
464764,1885,22736,138,0,35.00,-7.28,-4.84
464786,907,22736,123,0,35.00,-7.22,-4.89
464808,890,22352,121,0,35.00,-7.26,-4.86
464830,1813,22352,149,0,35.00,-7.28,-4.87
464871,1964,22352,157,0,35.00,-7.23,-4.91
464893,1171,22352,150,0,35.00,-7.23,-4.87
464915,1106,21840,159,0,35.00,-7.26,-4.88
464937,1589,22352,169,0,35.00,-7.28,-4.85
464959,1647,21840,165,0,35.00,-7.29,-4.89
464981,1373,21840,151,0,35.00,-7.24,-4.89
465387,1408,21840,139,0,36.73,-7.23,-4.86
465415,2274,21072,140,0,35.00,-7.26,-4.88
465437,1967,21072,179,0,35.00,-7.24,-4.86
465459,2157,20560,175,0,35.00,-7.22,-4.86
465481,2109,20560,159,0,35.00,-7.26,-4.85
465503,1928,20560,139,0,35.00,-7.25,-4.85
465525,1836,20560,141,0,35.00,-7.26,-4.88
465547,1850,20560,141,0,35.00,-7.24,-4.87
465569,1834,20560,139,0,35.00,-7.23,-4.88
465591,1836,20560,153,0,35.00,-7.23,-4.87
465633,1183,21072,155,0,35.00,-7.22,-4.86
465655,461,21072,156,0,35.00,-7.28,-4.86
465677,987,21072,167,0,35.00,-7.25,-4.82
465699,2549,21840,183,0,35.00,-7.24,-4.83
465721,2073,21840,154,0,35.00,-7.25,-4.88
465743,1867,21840,127,0,35.00,-7.25,-4.87
465765,2003,21840,139,0,35.00,-7.23,-4.83
465787,2683,21840,152,0,35.00,-7.30,-4.85
465809,2935,21840,165,0,35.00,-7.25,-4.91
465831,2130,21072,155,0,35.00,-7.29,-4.85
465874,1555,21840,172,0,35.00,-7.25,-4.90
465896,2094,21072,189,0,35.00,-7.24,-4.86
465918,1960,21840,184,0,35.00,-7.24,-4.87
465940,1727,21072,174,0,35.00,-7.21,-4.87
465962,1871,21072,166,0,35.00,-7.26,-4.86
465984,2089,21840,165,0,35.00,-7.24,-4.85
466408,2221,21840,167,0,36.25,-7.25,-4.90
466437,1382,21840,152,0,35.00,-7.25,-4.87
466459,1156,21840,155,0,35.00,-7.23,-4.84
466481,1307,21840,151,0,35.00,-7.26,-4.81
466503,1685,21840,123,0,35.00,-7.23,-4.88
466525,1309,21840,117,0,35.00,-7.26,-4.89
466547,1259,21840,119,0,35.00,-7.25,-4.84
466569,679,21840,119,0,35.00,-7.22,-4.86
466591,1019,21840,138,0,35.00,-7.27,-4.84
466613,188,21840,122,0,35.00,-7.22,-4.89
466655,680,22352,136,0,35.00,-7.24,-4.88
466677,1991,22352,154,0,35.00,-7.23,-4.85
466699,1881,22352,133,0,35.00,-7.22,-4.84
466721,733,22352,103,0,35.00,-7.23,-4.88
466743,1291,22352,117,0,35.00,-7.28,-4.88
466765,1961,22352,118,0,35.00,-7.23,-4.85
466787,1310,22352,115,0,35.00,-7.26,-4.88
466809,905,22736,127,0,35.00,-7.25,-4.86
466831,1567,22352,155,0,35.00,-7.25,-4.83
466853,1751,22352,160,0,35.00,-7.29,-4.87
466875,1303,22352,157,0,35.00,-7.26,-4.85
466916,1567,22736,164,0,35.00,-7.24,-4.83
466938,1931,22736,155,0,35.00,-7.23,-4.86
466960,1612,22736,137,0,35.00,-7.28,-4.86
466982,1639,22736,125,0,35.00,-7.29,-4.87
467429,2461,22736,139,0,36.36,-7.25,-4.88
467458,2285,21840,167,0,35.00,-7.26,-4.85
467480,1449,21840,121,0,35.00,-7.29,-4.87
467502,1683,21840,125,0,35.00,-7.22,-4.85
467524,1871,21840,123,0,35.00,-7.25,-4.87
467546,1753,21840,126,0,35.00,-7.22,-4.89
467568,1191,21840,135,0,35.00,-7.23,-4.85
467590,1479,21840,155,0,35.00,-7.29,-4.86
467612,1567,21840,159,0,35.00,-7.25,-4.86
467634,1623,22352,167,0,35.00,-7.25,-4.85
467656,1325,22352,151,0,35.00,-7.28,-4.88
467698,1339,22352,147,0,35.00,-7.28,-4.89
467720,2162,22352,139,0,35.00,-7.26,-4.87
467742,2235,22352,133,0,35.00,-7.27,-4.85
467764,1909,22352,121,0,35.00,-7.27,-4.89
467786,1754,22352,125,0,35.00,-7.27,-4.85
467808,1559,22352,136,0,35.00,-7.26,-4.85
467830,1597,22352,155,0,35.00,-7.28,-4.89
467852,1636,22352,165,0,35.00,-7.21,-4.87
467874,1621,22352,165,0,35.00,-7.25,-4.86
467896,1501,21840,151,0,35.00,-7.25,-4.86
467918,1553,22352,143,0,35.00,-7.25,-4.83
467959,1843,21840,137,0,35.00,-7.25,-4.85
467981,1717,21840,119,0,35.00,-7.25,-4.88
468706,1988,22352,136,0,36.09,-7.29,-4.89
468741,1435,22352,140,0,35.00,-7.26,-4.82
468763,1870,22352,123,0,35.00,-7.24,-4.90
468785,1622,22352,124,0,35.00,-7.27,-4.86
468807,1691,22352,143,0,35.00,-7.22,-4.85
468829,2121,22352,163,0,35.00,-7.26,-4.86
468851,2019,22352,164,0,35.00,-7.27,-4.84
468873,1555,22352,159,0,35.00,-7.27,-4.81
468895,1563,22352,155,0,35.00,-7.24,-4.85
468917,2229,22352,159,0,35.00,-7.23,-4.86
468939,2206,22352,135,0,35.00,-7.23,-4.88
468981,1561,22352,120,0,35.00,-7.27,-4.83
469727,1867,22352,125,0,35.84,-7.26,-4.87
469763,1431,22736,160,0,35.00,-7.22,-4.83
469785,2107,22736,147,0,35.00,-7.28,-4.89
469807,1853,22736,150,0,35.00,-7.24,-4.85
469829,1736,22736,165,0,35.00,-7.24,-4.86
469851,1596,22736,167,0,35.00,-7.23,-4.84
469873,1571,22736,158,0,35.00,-7.26,-4.82
469895,1625,23248,147,0,35.00,-7.24,-4.87
469917,1938,23248,145,0,35.00,-7.25,-4.84
469939,1561,23248,119,0,35.00,-7.24,-4.86
469961,1397,22736,118,0,35.00,-7.26,-4.87
469983,1604,23248,121,0,35.00,-7.25,-4.85
470024,1845,23248,140,0,35.00,-7.27,-4.87
470046,1513,22736,137,0,35.00,-7.25,-4.83
470068,1433,22736,153,0,35.00,-7.28,-4.86
470090,1789,23248,167,0,35.00,-7.27,-4.85
470112,2217,22736,175,0,35.00,-7.27,-4.90
470134,1995,22736,156,0,35.00,-7.27,-4.89
470156,1629,23248,139,0,35.00,-7.26,-4.83
470178,1692,23248,133,0,35.00,-7.25,-4.87
470200,1931,23248,127,0,35.00,-7.26,-4.82
470222,1909,22736,126,0,35.00,-7.23,-4.90
470265,1605,22736,137,0,35.00,-7.24,-4.85
470287,1651,22736,149,0,35.00,-7.25,-4.85
470309,1683,22736,163,0,35.00,-7.25,-4.88
470331,1643,22736,164,0,35.00,-7.25,-4.86
470353,1966,22736,163,0,35.00,-7.25,-4.86
470375,2169,22736,150,0,35.00,-7.24,-4.87
470397,2030,22736,135,0,35.00,-7.25,-4.86
470419,1995,22736,135,0,35.00,-7.30,-4.86
470441,2283,22736,135,0,35.00,-7.26,-4.85
470463,2101,22736,127,0,35.00,-7.26,-4.83
470505,1337,22736,135,0,35.00,-7.23,-4.85
470527,1947,22736,163,0,35.00,-7.26,-4.85
470549,2002,22736,167,0,35.00,-7.27,-4.83
470571,1255,22736,159,0,35.00,-7.25,-4.86
470593,1078,22736,155,0,35.00,-7.22,-4.81
470615,1799,22736,153,0,35.00,-7.24,-4.82
470637,2333,22736,149,0,35.00,-7.26,-4.91
470659,1868,22736,125,0,35.00,-7.25,-4.88
470681,1229,22736,114,0,35.00,-7.22,-4.84
470703,1543,22736,135,0,35.00,-7.25,-4.86
470725,1973,22736,151,0,35.00,-7.26,-4.88
470766,1882,22736,160,0,35.00,-7.24,-4.86
470788,1241,22736,157,0,35.00,-7.26,-4.85
470810,1585,22736,168,0,35.00,-7.22,-4.87
470832,1867,22736,167,0,35.00,-7.22,-4.84
470854,1645,22736,147,0,35.00,-7.26,-4.85
470876,1469,22736,133,0,35.00,-7.26,-4.84
470898,1628,22736,124,0,35.00,-7.26,-4.85
470920,1982,22736,123,0,35.00,-7.22,-4.86
470942,1803,22736,119,0,35.00,-7.26,-4.86
470964,1675,22736,133,0,35.00,-7.24,-4.89
471514,1575,22736,140,0,36.04,-7.25,-4.85
471548,1983,22736,137,0,35.00,-7.24,-4.89
471570,1832,22736,165,0,35.00,-7.26,-4.85
471592,1715,22736,157,0,35.00,-7.28,-4.86
471614,1827,22736,157,0,35.00,-7.22,-4.84
471636,1769,22736,137,0,35.00,-7.25,-4.83
471658,1849,22736,134,0,35.00,-7.25,-4.87
471680,1741,22736,123,0,35.00,-7.27,-4.83
471702,1727,22736,134,0,35.00,-7.22,-4.88
471724,1644,22736,135,0,35.00,-7.25,-4.86
471746,1654,22736,151,0,35.00,-7.22,-4.86
471788,1745,23248,152,0,35.00,-7.26,-4.86
471810,1709,23248,148,0,35.00,-7.23,-4.85
471832,1269,23248,159,0,35.00,-7.26,-4.83
471854,1308,23248,139,0,35.00,-7.24,-4.86
471876,1641,23248,132,0,35.00,-7.22,-4.84
471898,2069,24016,135,0,35.00,-7.25,-4.87
471920,1688,24016,117,0,35.00,-7.28,-4.87
471942,1177,24016,119,0,35.00,-7.24,-4.89
471964,1553,23248,141,0,35.00,-7.30,-4.87
471986,1831,23248,157,0,35.00,-7.26,-4.85
472536,1759,24016,159,0,35.91,-7.24,-4.85
472570,2505,24624,111,0,35.00,-7.24,-4.87
472592,723,24624,107,0,35.00,-7.29,-4.86
472614,634,24624,109,0,35.00,-7.25,-4.84
472636,1591,24624,115,0,35.00,-7.25,-4.87
472658,2237,24624,116,0,35.00,-7.24,-4.84
472680,1735,24624,106,0,35.00,-7.28,-4.89
472702,1433,24624,117,0,35.00,-7.24,-4.85
472724,1455,24624,135,0,35.00,-7.25,-4.86
472746,1897,24624,153,0,35.00,-7.23,-4.88
472768,1659,24624,154,0,35.00,-7.27,-4.86
472790,1291,24624,143,0,35.00,-7.25,-4.85
472831,1509,24624,139,0,35.00,-7.23,-4.89
472853,2297,24624,147,0,35.00,-7.26,-4.86
472875,1337,24624,111,0,35.00,-7.23,-4.88
472897,1511,24624,121,0,35.00,-7.23,-4.85
472919,2505,24624,141,0,35.00,-7.24,-4.84
472941,2346,24624,137,0,35.00,-7.25,-4.84
472963,1673,24624,136,0,35.00,-7.25,-4.84
472985,1865,24624,156,0,35.00,-7.29,-4.90
473557,2309,24624,169,0,35.47,-7.23,-4.88
473593,1567,24624,135,0,35.00,-7.29,-4.86
473615,1499,24624,135,0,35.00,-7.25,-4.83
473637,1845,25136,144,0,35.00,-7.23,-4.87
473659,2094,24624,145,0,35.00,-7.25,-4.86
473681,1747,24624,147,0,35.00,-7.24,-4.81
473703,1357,24624,151,0,35.00,-7.27,-4.87
473725,1655,24624,172,0,35.00,-7.28,-4.87
473747,1944,24624,179,0,35.00,-7.26,-4.86
473769,1641,24624,171,0,35.00,-7.27,-4.82
473791,1144,24624,153,0,35.00,-7.23,-4.84
473833,1204,24624,147,0,35.00,-7.30,-4.87
473855,2067,24624,140,0,35.00,-7.23,-4.88
473877,1606,24624,125,0,35.00,-7.29,-4.86
473899,1221,24624,122,0,35.00,-7.26,-4.87
473921,1619,24624,147,0,35.00,-7.25,-4.85
473943,1695,24624,153,0,35.00,-7.26,-4.84
473965,1195,24624,155,0,35.00,-7.25,-4.84
473987,1051,24624,160,0,35.00,-7.26,-4.86
474579,1565,24624,168,0,35.82,-7.22,-4.86
474615,1775,24624,155,0,35.00,-7.27,-4.83
474637,2168,25136,139,0,35.00,-7.20,-4.86
474659,1807,25136,135,0,35.00,-7.20,-4.86
474681,1433,25136,141,0,35.00,-7.23,-4.88
474703,1205,24624,167,0,35.00,-7.27,-4.82
474725,1907,25136,167,0,35.00,-7.25,-4.86
474747,1763,25136,172,0,35.00,-7.25,-4.85
474769,1784,24624,170,0,35.00,-7.25,-4.83
474791,1767,25136,156,0,35.00,-7.24,-4.85
474813,1948,25136,143,0,35.00,-7.27,-4.85
474835,1891,25136,137,0,35.00,-7.24,-4.87
474876,2072,25136,139,0,35.00,-7.23,-4.87
474898,2223,25136,149,0,35.00,-7.24,-4.88
474920,1621,25136,141,0,35.00,-7.23,-4.84
474942,1556,25136,155,0,35.00,-7.23,-4.87
474964,1741,25136,170,0,35.00,-7.28,-4.86
474986,1655,25136,169,0,35.00,-7.20,-4.87
475348,1609,25136,167,0,36.05,-7.27,-4.86
475377,2041,24624,159,0,35.00,-7.26,-4.90
475399,1979,25136,141,0,35.00,-7.26,-4.87
475421,1499,25136,143,0,35.00,-7.24,-4.87
475443,1470,25136,164,0,35.00,-7.25,-4.79
475465,1679,24624,165,0,35.00,-7.22,-4.85
475487,1553,24624,165,0,35.00,-7.26,-4.90
475509,1499,24624,154,0,35.00,-7.27,-4.85
475531,1685,24624,149,0,35.00,-7.23,-4.87
475553,1941,24624,135,99890,35.00,-7.25,-4.85
475575,1719,24624,125,99812,35.00,-7.27,-4.86
475597,1565,24624,126,99793,35.00,-7.25,-4.86
475638,1983,24624,152,99793,35.00,-7.25,-4.87
475660,1759,24624,147,99793,35.00,-7.25,-4.87
475682,1495,24624,157,99793,35.00,-7.27,-4.86
475704,1639,24624,169,99793,35.00,-7.22,-4.85
475726,1992,24624,173,99793,35.00,-7.26,-4.85
475748,1867,24624,165,99793,35.00,-7.20,-4.87
475770,1547,24624,149,99793,35.00,-7.23,-4.90
475792,1707,24624,139,99793,35.00,-7.23,-4.86
475814,2163,24624,141,99793,35.00,-7.20,-4.87
475836,1807,24624,121,99793,35.00,-7.25,-4.86
475878,1431,24624,125,99793,35.00,-7.25,-4.84
475900,1753,24624,145,99793,35.00,-7.22,-4.88
475922,1979,24624,167,99793,35.00,-7.24,-4.85
475944,1381,24624,163,99793,35.00,-7.26,-4.87
475966,1739,24624,171,99793,35.00,-7.29,-4.88
475988,1776,24624,167,99793,35.00,-7.22,-4.83
476365,1870,24624,153,99793,35.53,-7.24,-4.88
476400,1673,23248,163,99793,35.00,-7.28,-4.87
476422,1591,24016,165,99793,35.00,-7.26,-4.87
476444,1512,24016,171,99793,35.00,-7.24,-4.85
476466,1591,24016,168,99793,35.00,-7.29,-4.85
476488,1754,24016,163,99793,35.00,-7.26,-4.87
476510,1839,24016,152,99793,35.00,-7.26,-4.83
476532,1879,24016,140,99793,35.00,-7.24,-4.88
476554,1817,24528,139,99793,35.00,-7.25,-4.86
476576,1750,24528,133,99793,35.00,-7.22,-4.88
476598,1487,24528,141,99793,35.00,-7.25,-4.87
476640,1725,24528,157,99793,35.00,-7.26,-4.85
476662,1432,24528,163,99793,35.00,-7.28,-4.86
476684,1737,24528,173,99793,35.00,-7.24,-4.88
476706,1112,24528,165,99793,35.00,-7.24,-4.85
476728,1989,24528,159,99793,35.00,-7.28,-4.87
476750,2203,24528,155,99793,35.00,-7.25,-4.83
476772,2503,24624,141,99793,35.00,-7.21,-4.84
476794,1821,24528,123,99793,35.00,-7.27,-4.84
476816,1464,24528,121,99793,35.00,-7.23,-4.86
476838,1445,24528,139,99793,35.00,-7.27,-4.84
476860,2264,24528,168,99793,35.00,-7.31,-4.84
476901,1668,24528,159,99793,35.00,-7.23,-4.86
476923,1367,24528,162,99793,35.00,-7.25,-4.90
476945,1876,24528,185,99793,35.00,-7.23,-4.88
476967,1997,24528,171,99793,35.00,-7.21,-4.83
476989,1800,24528,153,99793,35.00,-7.24,-4.86
477386,1754,24528,135,99793,36.50,-7.25,-4.85
477422,1861,24016,153,99793,35.00,-7.25,-4.84
477444,1553,24016,179,99793,35.00,-7.25,-4.89
477466,1945,24016,172,99793,35.00,-7.26,-4.85
477488,1816,24016,157,99793,35.00,-7.24,-4.81
477510,1865,24016,145,99793,35.00,-7.25,-4.87
477532,1741,24528,137,99793,35.00,-7.27,-4.85
477554,1612,24528,133,99793,35.00,-7.23,-4.85
477576,1891,24528,146,99793,35.00,-7.26,-4.84
477598,2065,24528,153,99793,35.00,-7.27,-4.88
477620,1723,24016,157,99793,35.00,-7.29,-4.83
477642,1682,24528,171,99793,35.00,-7.26,-4.85
477683,1557,24528,167,99793,35.00,-7.24,-4.87
477705,1512,24528,159,99793,35.00,-7.28,-4.88
477727,1787,24528,158,99793,35.00,-7.26,-4.88
477749,1727,24528,143,99793,35.00,-7.25,-4.89
477771,1524,24528,125,99793,35.00,-7.26,-4.87
477793,1677,24528,133,99793,35.00,-7.27,-4.87
477815,1771,24528,135,99793,35.00,-7.23,-4.85
477837,1819,24528,148,99949,35.00,-7.25,-4.85
477859,1735,24528,157,99832,35.00,-7.30,-4.87
477881,1803,24528,172,99784,35.00,-7.27,-4.90
477924,1711,24528,180,99873,35.00,-7.24,-4.81
477946,1701,24016,163,99873,35.00,-7.24,-4.88
477968,1611,24528,151,99873,35.00,-7.29,-4.84
477990,1658,24528,137,99873,35.00,-7.25,-4.86
478408,1733,24528,135,99873,36.91,-7.25,-4.88
478445,1925,24528,137,99873,35.00,-7.24,-4.87
478467,1767,24528,157,99873,35.00,-7.24,-4.85
478489,1912,24528,143,99873,35.00,-7.24,-4.85
478511,2009,24528,137,99873,35.00,-7.29,-4.84
478533,1992,24528,133,99873,35.00,-7.27,-4.84
478555,1831,24624,139,99873,35.00,-7.24,-4.85
478577,1779,24528,147,99873,35.00,-7.22,-4.86
478599,1685,24528,157,99873,35.00,-7.25,-4.87
478621,1689,24528,167,99962,35.00,-7.27,-4.92
478643,1918,24528,179,99921,35.00,-7.24,-4.89
478685,1853,24528,169,99921,35.00,-7.27,-4.88
478707,1809,24528,156,99921,35.00,-7.24,-4.86
478729,1961,24528,146,99921,35.00,-7.24,-4.85
478751,1801,24528,140,99921,35.00,-7.25,-4.84
478773,1851,24528,133,99921,35.00,-7.26,-4.84
478795,1875,24528,146,99921,35.00,-7.24,-4.84
478817,1715,24528,149,99921,35.00,-7.28,-4.85
478839,1651,24528,158,99921,35.00,-7.29,-4.83
478861,1566,24528,167,99921,35.00,-7.25,-4.85
478883,1645,24528,168,99921,35.00,-7.26,-4.86
478905,1913,24528,169,99921,35.00,-7.27,-4.83
478946,1855,24528,157,99921,35.00,-7.25,-4.85
478968,1887,24528,147,99921,35.00,-7.27,-4.88
478990,2099,24528,141,99921,35.00,-7.26,-4.85
479429,1919,24528,133,99921,35.85,-7.23,-4.84
479467,1721,24624,127,99901,35.00,-7.30,-4.87
479489,1775,24624,136,99901,35.00,-7.29,-4.86
479511,1580,24624,123,99901,35.00,-7.22,-4.87
479533,2059,24624,138,99901,35.00,-7.24,-4.84
479555,1426,24624,133,99901,35.00,-7.24,-4.86
479577,1643,24624,153,99901,35.00,-7.26,-4.86
479599,1679,24624,167,99901,35.00,-7.26,-4.85
479621,1791,24624,169,99901,35.00,-7.27,-4.87
479643,1768,24624,168,99901,35.00,-7.24,-4.86
479665,1708,24624,154,99901,35.00,-7.27,-4.85
479687,1835,24624,149,99901,35.00,-7.28,-4.83
479728,1916,24624,139,99901,35.00,-7.26,-4.83
479750,1716,24624,138,99901,35.00,-7.26,-4.87
479772,1961,24624,138,99901,35.00,-7.28,-4.86
479794,1833,24624,139,99901,35.00,-7.25,-4.87
479816,1663,24624,147,99901,35.00,-7.23,-4.88
479838,1595,24624,159,99901,35.00,-7.24,-4.83
479860,1650,24624,167,99901,35.00,-7.25,-4.86
479882,1639,24624,169,99901,35.00,-7.24,-4.85
479904,1684,24624,160,99901,35.00,-7.27,-4.85
479926,1709,24624,149,99901,35.00,-7.26,-4.83
479969,3759,25136,171,99901,35.00,-7.24,-4.83
479991,2172,24624,126,99901,35.00,-7.24,-4.84
480706,1301,25136,124,99901,36.21,-7.25,-4.88
480731,1661,24624,125,99901,35.00,-7.25,-4.85
480753,2003,24624,147,99901,35.00,-7.24,-4.87
480775,1647,24624,151,99901,35.00,-7.26,-4.84
480797,1669,24624,167,99901,35.00,-7.25,-4.84
480819,1387,24624,166,99812,35.00,-7.24,-4.82
480841,1517,24624,170,99593,35.00,-7.26,-4.86
480863,1647,24624,159,99452,35.00,-7.21,-4.87
480885,1499,24624,142,99385,35.00,-7.25,-4.83
480907,1709,24624,137,99341,35.00,-7.23,-4.86
480929,2125,24624,139,99359,35.00,-7.24,-4.87
480971,2197,24624,139,99782,35.00,-7.27,-4.87
480993,1699,24624,137,99865,35.00,-7.21,-4.89
481727,1785,24624,153,99938,35.78,-7.25,-4.88
481753,1997,25136,137,99938,35.00,-7.27,-4.85
481775,2011,24624,157,99938,35.00,-7.24,-4.86
481797,1652,24624,167,99938,35.00,-7.26,-4.85
481819,1335,24624,168,99938,35.00,-7.23,-4.81
481841,1396,24624,165,99938,35.00,-7.28,-4.85
481863,2087,24624,169,99938,35.00,-7.26,-4.86
481885,2073,25136,147,99938,35.00,-7.23,-4.86
481907,1718,25136,125,99938,35.00,-7.26,-4.81
481929,1627,24624,125,99938,35.00,-7.22,-4.87
481951,1850,24624,137,99938,35.00,-7.24,-4.86
481973,2203,24624,153,99938,35.00,-7.27,-4.85
482749,1147,24624,149,99938,35.56,-7.27,-4.87
482776,1691,24624,141,99938,35.00,-7.24,-4.85
482798,1637,24528,172,99938,35.00,-7.28,-4.86
482820,1671,24624,166,99938,35.00,-7.27,-4.86
482842,1769,24624,158,99938,35.00,-7.24,-4.82
482864,1499,24624,138,99938,35.00,-7.25,-4.86
482886,1448,24624,132,99938,35.00,-7.24,-4.87
482908,2009,24624,136,99938,35.00,-7.25,-4.85
482930,1989,24624,141,99938,35.00,-7.24,-4.90
482952,1509,24624,141,99938,35.00,-7.20,-4.85
482974,1454,24624,164,99938,35.00,-7.24,-4.85
483516,1855,24624,173,99512,35.59,-7.25,-4.85
483558,1386,24624,165,99512,35.00,-7.23,-4.88
483580,1817,24528,156,99512,35.00,-7.23,-4.85
483602,1687,24528,146,99512,35.00,-7.24,-4.84
483624,1737,24624,135,99512,35.00,-7.26,-4.85
483646,1945,24624,137,99512,35.00,-7.27,-4.86
483668,2015,24624,140,99512,35.00,-7.21,-4.85
483690,1891,24624,143,99512,35.00,-7.24,-4.86
483712,1495,24528,147,99512,35.00,-7.27,-4.86
483734,1519,24528,162,99512,35.00,-7.23,-4.89
483756,1579,24528,167,99792,35.00,-7.22,-4.88
483798,1823,24528,171,99368,35.00,-7.23,-4.89
483820,1695,24528,155,99303,35.00,-7.23,-4.83
483842,1767,24528,141,99293,35.00,-7.25,-4.86
483864,1861,24528,127,99365,35.00,-7.23,-4.88
483886,1941,24528,134,99532,35.00,-7.22,-4.85
483908,1879,24528,127,99717,35.00,-7.23,-4.87
483930,1599,24528,135,99843,35.00,-7.27,-4.91
483952,1660,24528,145,99894,35.00,-7.27,-4.85
483974,1687,24528,166,99925,35.00,-7.24,-4.85
483996,1801,24528,165,99987,35.00,-7.24,-4.87
484536,1739,24528,165,99987,35.41,-7.24,-4.85
484566,1627,24016,153,99487,35.00,-7.24,-4.89
484588,1757,24528,124,99521,35.00,-7.29,-4.86
484610,1675,24528,139,99616,35.00,-7.24,-4.85
484632,1638,24528,155,99781,35.00,-7.25,-4.82
484654,1660,24528,159,99942,35.00,-7.26,-4.83
484676,1597,24528,167,99942,35.00,-7.26,-4.84
484698,1747,24016,159,99942,35.00,-7.26,-4.83
484720,1813,24528,149,99942,35.00,-7.24,-4.87
484761,1935,24528,133,99942,35.00,-7.28,-4.85
484783,1791,24016,122,99942,35.00,-7.25,-4.84
484805,1869,24016,127,99942,35.00,-7.23,-4.88
484827,1901,24016,123,99942,35.00,-7.24,-4.86
484849,1785,24016,137,99942,35.00,-7.24,-4.85
484871,1623,24016,145,99942,35.00,-7.25,-4.88
484893,1611,24016,159,99942,35.00,-7.26,-4.82
484915,1751,24016,167,99942,35.00,-7.25,-4.86
484937,1751,24016,163,99942,35.00,-7.26,-4.85
484959,1677,24016,149,99942,35.00,-7.26,-4.85
485557,1788,24016,141,99942,35.58,-7.23,-4.86
485587,1816,24016,152,99942,35.00,-7.22,-4.85
485609,1610,24016,143,99942,35.00,-7.26,-4.83
485631,1678,24528,160,99942,35.00,-7.27,-4.82
485653,1653,24528,163,99942,35.00,-7.26,-4.82
485675,1644,24016,165,99942,35.00,-7.24,-4.86
485697,1653,24016,158,99942,35.00,-7.25,-4.89
485719,1675,24528,146,99942,35.00,-7.27,-4.84
485741,1774,24016,137,99942,35.00,-7.27,-4.86
485783,1891,24528,133,99942,35.00,-7.25,-4.86
485805,1932,24528,125,99942,35.00,-7.27,-4.84
485827,1452,24528,127,99942,35.00,-7.23,-4.85
485849,1447,24528,141,99942,35.00,-7.23,-4.88
485871,1807,24016,167,99942,35.00,-7.20,-4.90
485893,2491,24016,183,99942,35.00,-7.29,-4.86
485915,2009,24016,171,99942,35.00,-7.27,-4.90
485937,1719,24016,152,99942,35.00,-7.25,-4.85
485959,1719,24016,147,99801,35.00,-7.23,-4.88
485981,1527,24016,121,99649,35.00,-7.24,-4.82
486578,1404,24016,117,99579,36.20,-7.26,-4.83
486609,3116,21840,165,99579,35.00,-7.24,-4.89
486631,3799,21840,201,99579,35.00,-7.28,-4.90
486653,3757,21072,206,99579,35.00,-7.27,-4.85
486675,2073,21840,159,99579,35.00,-7.28,-4.91
486697,1252,21840,133,99951,35.00,-7.26,-4.83
486719,1704,21840,137,99769,35.00,-7.25,-4.86
486741,2949,22352,147,99651,35.00,-7.23,-4.83
486763,2379,22352,125,99537,35.00,-7.26,-4.81
486785,2123,22352,135,99447,35.00,-7.25,-4.86
486826,1433,22352,139,99438,35.00,-7.23,-4.87
486848,2093,22736,152,99594,35.00,-7.25,-4.82
486870,1869,22736,158,99714,35.00,-7.25,-4.87
486892,1753,22736,159,99749,35.00,-7.24,-4.85
486914,2199,23248,175,99771,35.00,-7.26,-4.84
486936,1578,23248,147,99776,35.00,-7.27,-4.85
486958,1751,23248,146,99816,35.00,-7.23,-4.88
486980,1783,23248,133,99874,35.00,-7.23,-4.87
487344,1759,23248,123,99921,35.99,-7.23,-4.87
487372,1471,22736,139,99921,35.00,-7.24,-4.84
487394,2008,22352,170,99921,35.00,-7.26,-4.85
487416,1813,22352,147,99700,35.00,-7.26,-4.87
487438,2109,22352,149,99346,35.00,-7.27,-4.88
487460,1427,21840,120,99122,35.00,-7.23,-4.85
487482,2124,21072,127,99005,35.00,-7.26,-4.85
487504,1919,21072,135,98945,35.00,-7.25,-4.84
487526,812,21072,117,98923,35.00,-7.26,-4.86
487568,1299,21072,149,98930,35.00,-7.28,-4.88
487590,1964,20368,153,99102,35.00,-7.25,-4.85
487612,1885,20560,170,99297,35.00,-7.26,-4.88
487634,2057,20560,172,99422,35.00,-7.24,-4.89
487656,2137,20560,159,99485,35.00,-7.30,-4.87
487678,1743,20560,147,99521,35.00,-7.23,-4.86
487700,1587,20560,135,99581,35.00,-7.23,-4.84
487722,1301,20560,133,99650,35.00,-7.28,-4.84
487744,1619,20560,141,99749,35.00,-7.24,-4.84
487766,1914,20368,153,99874,35.00,-7.41,-4.97
487808,3805,20368,200,99874,35.00,-7.22,-4.86
487830,0,19856,141,99874,35.00,-7.13,-4.85
487852,3805,19088,219,99874,35.00,-7.24,-4.85
487874,0,19088,117,99874,35.00,-7.25,-4.85
487896,3813,19088,207,99874,35.00,-7.23,-4.82
487918,807,19856,103,99874,35.00,-7.21,-4.82
487940,1543,19856,133,99874,35.00,-7.24,-4.83
487962,2744,19856,147,99874,35.00,-7.22,-4.89
487984,2230,19856,135,99874,35.00,-7.22,-4.86
488365,1607,19856,145,99874,36.19,-7.25,-4.84
488393,1367,19088,141,99829,35.00,-7.23,-4.88
488415,1389,19088,137,99920,35.00,-7.25,-4.87
488437,1686,19088,126,99960,35.00,-7.25,-4.85
488459,1827,19088,123,99963,35.00,-7.25,-4.83
488481,1619,19088,117,99963,35.00,-7.24,-4.87
488503,1462,19088,121,99963,35.00,-7.21,-4.87
488525,1589,19088,139,99963,35.00,-7.25,-4.85
488547,1764,19856,154,99963,35.00,-7.24,-4.89
488569,1865,19088,175,99963,35.00,-7.23,-4.86
488610,1304,19856,163,99963,35.00,-7.23,-4.87
488632,1877,19856,173,99963,35.00,-7.24,-4.85
488654,1813,19856,155,99963,35.00,-7.25,-4.87
488676,2130,19856,151,99963,35.00,-7.27,-4.84
488698,1959,19856,121,99963,35.00,-7.23,-4.91
488720,1734,19856,123,99963,35.00,-7.25,-4.87
488742,1843,20368,123,99963,35.00,-7.24,-4.85
488764,1707,20368,135,99963,35.00,-7.21,-4.85
488786,1688,20368,153,99963,35.00,-7.27,-4.86
488808,1733,20368,166,99963,35.00,-7.29,-4.85
488830,1592,20368,170,99963,35.00,-7.24,-4.87
488871,1741,20368,174,99963,35.00,-7.23,-4.86
488893,1944,20368,169,99963,35.00,-7.23,-4.86
488915,2006,20368,155,99963,35.00,-7.24,-4.87
488937,1803,20368,140,99963,35.00,-7.24,-4.83
488959,1943,20368,139,99672,35.00,-7.27,-4.89
488981,1945,20368,127,99471,35.00,-7.26,-4.88
489385,1659,20368,126,99369,36.66,-7.26,-4.89
489413,1682,20560,167,99369,35.00,-7.24,-4.84
489435,1894,20560,147,99369,35.00,-7.26,-4.86
489457,2031,21072,132,99369,35.00,-7.24,-4.88
489479,1681,21072,123,99369,35.00,-7.28,-4.88
489501,1976,21072,125,99369,35.00,-7.25,-4.84
489523,1619,21072,132,99369,35.00,-7.24,-4.86
489545,1643,20560,141,99369,35.00,-7.25,-4.84
489567,1655,21072,158,99369,35.00,-7.27,-4.86
489589,2065,21072,169,99369,35.00,-7.28,-4.82
489611,1780,21072,165,99369,35.00,-7.24,-4.83
489653,3255,21072,182,99369,35.00,-7.25,-4.87
489675,2239,21072,154,99369,35.00,-7.26,-4.87
489697,3193,21072,171,99766,35.00,-7.26,-4.90
489719,3765,21072,154,99534,35.00,-7.25,-4.87
489741,437,21072,117,99395,35.00,-7.26,-4.85
489763,2843,21840,159,99298,35.00,-7.24,-4.85
489785,3557,21840,183,99237,35.00,-7.22,-4.86
489807,3805,21840,192,99231,35.00,-7.23,-4.88
489829,2066,21840,152,99292,35.00,-7.23,-4.85
489851,979,21840,163,99408,35.00,-7.28,-4.83
489894,0,21840,139,99833,35.00,-7.23,-4.89
489916,2489,21840,159,99895,35.00,-7.24,-4.83
489938,2089,21840,151,99938,35.00,-7.22,-4.85
489960,639,21840,117,99981,35.00,-7.23,-4.87
489982,967,21840,141,99981,35.00,-7.20,-4.86
490406,2264,21840,165,99981,36.61,-7.25,-4.87
490435,1674,21072,173,99768,35.00,-7.28,-4.85
490457,2083,21072,143,99521,35.00,-7.27,-4.85
490479,1798,21072,135,99337,35.00,-7.25,-4.89
490501,1743,21072,135,99170,35.00,-7.21,-4.84
490523,1810,21072,147,99042,35.00,-7.24,-4.90
490545,1770,21072,159,98986,35.00,-7.26,-4.88
490567,1807,21072,160,99005,35.00,-7.24,-4.89
490589,1975,21072,164,99104,35.00,-7.26,-4.86
490611,1773,21072,158,99273,35.00,-7.23,-4.85
490633,1607,21072,151,99429,35.00,-7.26,-4.85
490675,1884,21072,148,99627,35.00,-7.23,-4.85
490697,1099,21072,121,99688,35.00,-7.21,-4.86
490719,1200,21072,125,99777,35.00,-7.23,-4.85
490741,1935,21072,143,99877,35.00,-7.21,-4.85
490763,1895,21072,153,99938,35.00,-7.26,-4.86
490785,1653,21072,157,99991,35.00,-7.29,-4.84
490807,1670,21072,171,99991,35.00,-7.26,-4.85
490829,1709,21072,167,99991,35.00,-7.28,-4.87
490851,1976,21072,167,99991,35.00,-7.24,-4.88
490873,1788,21072,149,99991,35.00,-7.25,-4.87
490895,1675,21072,139,99991,35.00,-7.27,-4.86
490936,2541,21072,151,99991,35.00,-7.24,-4.85
490958,1723,21072,127,99991,35.00,-7.24,-4.85
490980,1069,21072,125,99991,35.00,-7.24,-4.86
491427,2105,21072,159,99991,36.87,-7.25,-4.85
491457,1607,20560,165,99883,35.00,-7.26,-4.86
491479,1957,21072,141,99957,35.00,-7.25,-4.82
491501,1902,21072,153,99957,35.00,-7.25,-4.87
491523,1886,21072,155,99957,35.00,-7.27,-4.83
491545,1612,20560,159,99957,35.00,-7.21,-4.87
491567,1493,21072,167,99957,35.00,-7.26,-4.87
491589,1525,21072,163,99957,35.00,-7.23,-4.83
491611,1659,21072,155,99957,35.00,-7.25,-4.87
491633,1806,21072,149,99957,35.00,-7.30,-4.84
491655,1983,21072,141,99957,35.00,-7.22,-4.88
491677,1640,21072,137,99957,35.00,-7.27,-4.91
491718,1851,21072,147,99957,35.00,-7.24,-4.85
491740,1849,21072,147,99957,35.00,-7.27,-4.86
491762,1608,21072,148,99957,35.00,-7.27,-4.84
491784,1516,21072,164,99957,35.00,-7.28,-4.87
491806,1629,21072,166,99957,35.00,-7.24,-4.87
491828,1655,21072,166,99957,35.00,-7.22,-4.85
491850,1769,21072,157,99957,35.00,-7.25,-4.85
491872,1651,20560,147,99957,35.00,-7.25,-4.86
491894,1695,20560,135,99957,35.00,-7.22,-4.87
491916,1843,20560,137,99836,35.00,-7.26,-4.84
491959,1912,20560,146,99056,35.00,-7.25,-4.89
491981,1801,20560,151,98951,35.00,-7.25,-4.87
492704,1642,20560,165,98888,36.63,-7.24,-4.83
492740,1799,18576,171,98454,35.00,-7.26,-4.86
492762,1630,18576,155,98514,35.00,-7.23,-4.84
492784,1432,18576,157,98641,35.00,-7.25,-4.84
492806,1497,18576,163,98826,35.00,-7.24,-4.85
492828,1709,18192,160,98971,35.00,-7.23,-4.89
492850,2077,18576,165,99024,35.00,-7.26,-4.86
492872,2012,18576,145,99042,35.00,-7.27,-4.85
492894,1298,18576,120,99054,35.00,-7.26,-4.84
492916,2031,18576,147,99113,35.00,-7.25,-4.83
492938,2043,18576,137,99194,35.00,-7.23,-4.89
492960,1805,18576,149,99277,35.00,-7.26,-4.85
493725,1745,18576,163,99513,35.68,-7.26,-4.85
493763,1437,19856,155,99569,35.00,-7.24,-4.83
493785,2089,19856,181,99647,35.00,-7.28,-4.84
493807,2146,19856,165,99732,35.00,-7.28,-4.86
493829,2309,19856,155,99769,35.00,-7.25,-4.84
493851,1141,19856,123,99821,35.00,-7.24,-4.88
493873,1787,19856,127,99851,35.00,-7.22,-4.84
493895,1823,19856,151,99891,35.00,-7.24,-4.84
493917,2220,19856,147,99950,35.00,-7.25,-4.88
493939,2439,19856,157,99997,35.00,-7.23,-4.88
493961,1739,19856,160,99997,35.00,-7.27,-4.87
494746,1369,19856,167,99997,35.70,-7.27,-4.87
494785,1599,20368,151,99927,35.00,-7.23,-4.89
494807,1717,20368,155,99568,35.00,-7.26,-4.83
494829,1775,20368,148,99204,35.00,-7.23,-4.87
494851,1786,20368,137,98932,35.00,-7.23,-4.85
494873,1973,19856,139,98754,35.00,-7.24,-4.85
494895,1877,19856,139,98650,35.00,-7.23,-4.87
494917,1951,20368,151,98571,35.00,-7.21,-4.89
494939,1643,20368,152,98527,35.00,-7.27,-4.86
494961,1551,20368,158,98547,35.00,-7.24,-4.86
494983,1546,20368,166,98632,35.00,-7.20,-4.87
495512,1707,20368,167,98792,34.78,-7.29,-4.89
495547,1725,20560,127,99470,35.00,-7.27,-4.88
495569,1983,20368,147,99085,35.00,-7.26,-4.84
495591,1911,20368,143,98826,35.00,-7.24,-4.91
495613,1883,20368,135,98668,35.00,-7.28,-4.84
495635,1779,20368,149,98534,35.00,-7.26,-4.89
495657,1687,20368,147,98438,35.00,-7.25,-4.85
495679,1724,20368,159,98422,35.00,-7.26,-4.86
495701,1583,20368,164,98469,35.00,-7.26,-4.86
495723,1533,20368,166,98566,35.00,-7.22,-4.85
495745,1657,20368,155,98711,35.00,-7.27,-4.84
495767,1682,20368,149,98848,35.00,-7.27,-4.85
495808,1692,20368,136,99032,35.00,-7.25,-4.89
495830,1703,20368,126,99064,35.00,-7.26,-4.85
495852,2375,20560,137,99095,35.00,-7.26,-4.86
495874,2075,20368,143,99126,35.00,-7.25,-4.83
495896,1560,20368,141,99157,35.00,-7.24,-4.84
495918,1689,20368,164,99157,35.00,-7.28,-4.88
495940,1691,20368,167,99198,35.00,-7.21,-4.86
495962,1636,20368,163,99269,35.00,-7.26,-4.86
495984,1609,20560,157,99352,35.00,-7.24,-4.86
496533,1561,20368,147,99412,35.70,-7.25,-4.88
496570,1624,20560,142,99176,35.00,-7.24,-4.87
496592,1749,20560,127,99250,35.00,-7.27,-4.84
496614,1765,21072,140,99313,35.00,-7.22,-4.85
496636,1688,21072,153,99394,35.00,-7.25,-4.84
496658,1684,20560,170,99464,35.00,-7.24,-4.89
496680,1919,21072,181,99523,35.00,-7.23,-4.85
496702,1641,21072,167,99574,35.00,-7.26,-4.83
496724,1655,21072,153,99583,35.00,-7.25,-4.86
496746,1662,21072,147,99586,35.00,-7.25,-4.85
496768,1567,20560,123,99525,35.00,-7.26,-4.88
496810,1717,20560,125,99308,35.00,-7.24,-4.86
496832,1885,20368,133,99309,35.00,-7.26,-4.86
496854,1769,20368,141,99349,35.00,-7.21,-4.86
496876,1891,20368,156,99428,35.00,-7.26,-4.85
496898,1799,19856,174,99481,35.00,-7.30,-4.89
496920,1721,19856,179,99514,35.00,-7.24,-4.82
496942,1783,19856,173,99542,35.00,-7.25,-4.85
496964,1853,20368,160,99558,35.00,-7.24,-4.87
496986,1641,20368,139,99448,35.00,-7.22,-4.86
497554,1815,20368,133,99145,35.66,-7.24,-4.90
497592,1623,20560,157,99145,35.00,-7.30,-4.81
497614,1849,21072,146,99145,35.00,-7.25,-4.87
497636,1748,20560,159,99145,35.00,-7.25,-4.85
497658,1689,20560,171,99145,35.00,-7.25,-4.89
497680,1675,20560,175,99145,35.00,-7.24,-4.85
497702,1801,20560,173,99145,35.00,-7.23,-4.87
497724,1905,20560,163,99145,35.00,-7.29,-4.84
497746,1703,21072,141,99145,35.00,-7.26,-4.90
497768,1671,21072,125,99671,35.00,-7.24,-4.84
497790,1706,20560,125,99354,35.00,-7.26,-4.86
497812,1629,20560,126,99160,35.00,-7.28,-4.85
497853,1683,20560,146,98789,35.00,-7.24,-4.87
497875,1679,20560,149,98757,35.00,-7.25,-4.85
497897,1803,20560,169,98765,35.00,-7.25,-4.85
497919,1823,20560,171,98864,35.00,-7.26,-4.89
497941,1717,20560,170,98982,35.00,-7.26,-4.85
497963,1738,20560,165,99053,35.00,-7.22,-4.86
497985,1855,20560,154,99099,35.00,-7.24,-4.87
498575,1781,20560,135,99079,35.39,-7.27,-4.85
498615,1433,20560,156,97997,35.00,-7.22,-4.89
498637,1592,21072,163,98075,35.00,-7.26,-4.84
498659,1933,21072,179,98216,35.00,-7.24,-4.85
498681,1864,21072,167,98391,35.00,-7.26,-4.82
498703,2055,21072,165,98521,35.00,-7.23,-4.85
498725,1909,21072,147,98612,35.00,-7.22,-4.86
498747,1972,21072,139,98666,35.00,-7.24,-4.85
498769,1897,21840,133,98701,35.00,-7.25,-4.85
498791,1901,21840,138,98739,35.00,-7.26,-4.87
498813,1695,21072,141,98797,35.00,-7.24,-4.85
498855,1774,21072,164,99016,35.00,-7.26,-4.84
498877,1695,21072,168,99089,35.00,-7.24,-4.81
498899,1739,21840,169,99149,35.00,-7.24,-4.86
498921,1675,21840,159,99206,35.00,-7.20,-4.87
498943,1834,21072,151,99265,35.00,-7.24,-4.84
498965,1890,21840,134,99319,35.00,-7.25,-4.93
498987,1767,21840,135,99363,35.00,-7.28,-4.84
499349,1501,21840,122,99424,35.25,-7.26,-4.82
499377,1891,21840,154,98632,35.00,-7.24,-4.93
499399,1611,21840,182,98724,35.00,-7.25,-4.88
499421,1852,21840,167,98877,35.00,-7.24,-4.85
499443,2025,21840,159,99029,35.00,-7.23,-4.90
499465,1837,21840,140,99150,35.00,-7.25,-4.85
499487,1822,21840,139,99252,35.00,-7.25,-4.89
499509,1629,21840,133,99307,35.00,-7.25,-4.89
499531,1657,21840,150,99349,35.00,-7.25,-4.83
499553,1587,21840,151,99412,35.00,-7.21,-4.85
499575,1589,21840,165,99473,35.00,-7.25,-4.88
499617,1389,21840,163,99703,35.00,-7.25,-4.89
499639,1575,21840,159,99783,35.00,-7.27,-4.86
499661,1487,21840,149,99845,35.00,-7.27,-4.82
499683,1703,21840,140,99904,35.00,-7.23,-4.83
499705,1867,21840,132,99949,35.00,-7.22,-4.90
499727,1674,22352,123,99949,35.00,-7.28,-4.89
499749,1653,22352,137,99949,35.00,-7.28,-4.86
499771,1596,22352,139,99949,35.00,-7.26,-4.85
499793,1755,22352,153,99949,35.00,-7.27,-4.86
499815,1548,22352,159,99949,35.00,-7.24,-4.89
499837,1547,22352,163,99949,35.00,-7.20,-4.87
499878,1609,22352,158,99949,35.00,-7.27,-4.82
499900,1727,22352,159,99949,35.00,-7.20,-4.86
499922,1914,22352,159,99949,35.00,-7.26,-4.90
499944,1909,22352,141,99949,35.00,-7.23,-4.85
499966,1767,22352,134,99949,35.00,-7.25,-4.90
499988,1955,22352,135,99949,35.00,-7.22,-4.85
500362,1878,22352,145,99949,35.70,-7.23,-4.89
500399,1929,22352,141,99949,35.00,-7.24,-4.88
500421,1659,22352,151,99949,35.00,-7.26,-4.88
500443,1914,22352,152,99949,35.00,-7.23,-4.89
500465,2095,22352,153,99949,35.00,-7.27,-4.83
500487,2237,21840,153,99949,35.00,-7.27,-4.84
500509,2155,22352,166,99949,35.00,-7.26,-4.86
500531,2299,22352,191,99949,35.00,-7.28,-4.85
500553,2357,22352,207,99949,35.00,-7.25,-4.86
500575,2280,22352,203,99949,35.00,-7.27,-4.85
500597,2095,22352,197,99949,35.00,-7.26,-4.86
500619,1917,22352,179,99949,35.00,-7.26,-4.90
500660,1817,22352,157,99949,35.00,-7.26,-4.86
500682,1365,22352,134,99949,35.00,-7.22,-4.84
500704,1461,22352,149,99949,35.00,-7.24,-4.90
500726,1965,22352,169,99949,35.00,-7.25,-4.87
500748,2074,22352,175,99949,35.00,-7.23,-4.89
500770,2391,22352,181,99949,35.00,-7.25,-4.85
500792,2863,22352,213,99949,35.00,-7.26,-4.86
500814,2703,21840,188,99949,35.00,-7.26,-4.84
500836,2089,21840,175,99949,35.00,-7.28,-4.90
500858,1391,21840,124,99993,35.00,-7.28,-4.87
500901,553,21840,87,99778,35.00,-7.27,-4.87
500923,0,21840,71,99799,35.00,-7.26,-4.85
500945,866,21840,104,99871,35.00,-7.25,-4.85
500967,1334,21840,117,99992,35.00,-7.24,-4.86
500989,1018,21840,79,99992,35.00,-7.20,-4.85
501383,720,21840,109,99992,36.22,-7.23,-4.85
501422,2355,21072,146,99992,35.00,-7.25,-4.88
501444,3003,21072,151,99992,35.00,-7.27,-4.82
501466,2522,21840,145,99992,35.00,-7.26,-4.82
501488,1608,21840,143,99992,35.00,-7.24,-4.88
501510,1560,21072,159,99992,35.00,-7.24,-4.88
501532,2421,21840,197,99992,35.00,-7.25,-4.87
501554,2905,21840,213,99992,35.00,-7.25,-4.86
501576,1861,21072,191,99992,35.00,-7.25,-4.85
501598,895,21072,155,99992,35.00,-7.24,-4.85
501620,908,21072,139,99992,35.00,-7.24,-4.82
501663,937,21840,103,99992,35.00,-7.28,-4.85
501685,0,21840,95,99992,35.00,-7.24,-4.84
501707,1454,21840,117,99992,35.00,-7.23,-4.87
501729,1914,21840,131,99992,35.00,-7.25,-4.86
501751,1495,21840,121,99992,35.00,-7.23,-4.87
501773,51,21840,120,99992,35.00,-7.23,-4.85
501795,1160,21840,133,99992,35.00,-7.24,-4.88
501817,1061,22352,124,99992,35.00,-7.24,-4.89
501839,1063,23248,111,99992,35.00,-7.25,-4.90
501861,1255,24016,106,99992,35.00,-7.21,-4.83
501903,1515,24016,103,99992,35.00,-7.25,-4.85
501925,1773,24016,110,99992,35.00,-7.26,-4.89
501947,1757,24016,121,99992,35.00,-7.24,-4.90
501969,1813,24016,139,99992,35.00,-7.24,-4.90
501991,1774,24016,159,99992,35.00,-7.23,-4.82
502403,1917,24016,169,99992,37.15,-7.25,-4.85
502445,2151,24016,147,99992,35.00,-7.24,-4.83
502467,2095,24016,149,99992,35.00,-7.26,-4.88
502489,1741,24016,147,99992,35.00,-7.26,-4.88
502511,1547,24016,151,99992,35.00,-7.26,-4.83
502533,1355,24016,155,99992,35.00,-7.23,-4.88
502555,1485,24016,159,99992,35.00,-7.23,-4.84
502577,1505,24016,142,99992,35.00,-7.23,-4.87
502599,1541,24016,125,99992,35.00,-7.28,-4.84
502621,1335,24016,86,99992,35.00,-7.27,-4.85
502643,1087,24528,72,99992,35.00,-7.23,-4.86
502685,843,24528,79,99992,35.00,-7.28,-4.85
502707,1267,24016,125,99992,35.00,-7.27,-4.85
502729,1458,24016,141,99992,35.00,-7.27,-4.83
502751,1654,24016,157,99992,35.00,-7.25,-4.88
502773,1765,24016,158,99992,35.00,-7.24,-4.90
502795,1483,24016,153,99992,35.00,-7.23,-4.86
502817,1801,24016,155,99992,35.00,-7.29,-4.84
502839,1947,23248,153,99992,35.00,-7.23,-4.86
502861,2149,23248,140,99992,35.00,-7.29,-4.86
502883,2247,23248,133,99992,35.00,-7.24,-4.88
502926,1829,23248,125,99992,35.00,-7.27,-4.87
502948,1693,23248,140,99992,35.00,-7.24,-4.88
502970,1725,23248,157,99992,35.00,-7.21,-4.88
502992,1811,23248,165,99992,35.00,-7.26,-4.90
503424,1911,23248,175,99992,37.11,-7.24,-4.84
503453,1947,24016,148,99992,35.00,-7.25,-4.89
503475,1828,24016,165,99992,35.00,-7.24,-4.86
503497,1828,24016,159,99992,35.00,-7.27,-4.85
503519,1844,24016,143,99992,35.00,-7.27,-4.89
503541,1943,24016,141,99992,35.00,-7.24,-4.86
503563,1895,24016,124,99992,35.00,-7.23,-4.89
503585,1739,24016,139,99992,35.00,-7.24,-4.90
503627,1661,24016,147,99992,35.00,-7.23,-4.86
503649,1528,24016,158,99992,35.00,-7.29,-4.88
503671,1567,24016,166,99992,35.00,-7.24,-4.84
503693,1477,24016,165,99992,35.00,-7.25,-4.85
503715,1621,24016,157,99992,35.00,-7.26,-4.87
503737,1717,24016,162,99992,35.00,-7.26,-4.87
503759,1897,24016,137,99992,35.00,-7.28,-4.88
503781,1771,24016,123,99992,35.00,-7.25,-4.83
503803,1779,24016,135,99992,35.00,-7.23,-4.85
503825,1679,24016,139,99992,35.00,-7.21,-4.87
503847,1576,24016,159,99992,35.00,-7.26,-4.85
503888,1675,24016,172,99992,35.00,-7.24,-4.86
503910,1458,24016,165,99992,35.00,-7.26,-4.85
503932,1525,24016,171,99992,35.00,-7.26,-4.83
503954,1646,24016,171,99992,35.00,-7.26,-4.86
503976,1865,24016,155,99992,35.00,-7.26,-4.86
503998,1827,24528,141,99992,35.00,-7.24,-4.87
504020,1831,24528,138,99992,35.00,-7.27,-4.86
504042,1863,24528,133,99992,35.00,-7.26,-4.87
504064,1833,24016,138,99992,35.00,-7.27,-4.86
504086,1689,24016,147,99992,35.00,-7.27,-4.88
504129,1705,24016,159,99992,35.00,-7.30,-4.87
504151,1627,24016,163,99992,35.00,-7.27,-4.85
504173,1631,24016,167,99992,35.00,-7.27,-4.87
504195,1839,24016,155,99992,35.00,-7.24,-4.85
504217,1813,24016,150,99992,35.00,-7.29,-4.85
504239,1720,24016,134,99992,35.00,-7.23,-4.86
504261,1783,24528,123,99992,35.00,-7.25,-4.87
504283,1659,24016,123,99992,35.00,-7.25,-4.84
504305,1855,24528,149,99992,35.00,-7.26,-4.81
504327,1829,24528,158,99992,35.00,-7.24,-4.89
504369,1655,24016,171,99992,35.00,-7.24,-4.85
504391,1467,24016,157,99992,35.00,-7.22,-4.87
504413,1689,24528,157,99992,35.00,-7.26,-4.85
504435,1669,24528,142,99992,35.00,-7.26,-4.81
504457,1595,24528,134,99992,35.00,-7.23,-4.88
504479,1551,24528,123,99992,35.00,-7.27,-4.86
504501,1896,24528,126,99992,35.00,-7.27,-4.89
504523,1816,24528,133,99992,35.00,-7.27,-4.88
504545,1703,24528,146,99992,35.00,-7.27,-4.83
504567,1661,24016,151,99992,35.00,-7.22,-4.90
504589,1757,24016,171,99992,35.00,-7.25,-4.85
504630,1894,24016,176,99992,35.00,-7.24,-4.86
504652,1768,24016,171,99992,35.00,-7.23,-4.84
504674,1967,24016,168,99992,35.00,-7.27,-4.85
504696,2035,24016,151,99992,35.00,-7.26,-4.85
504718,2003,24016,141,99992,35.00,-7.24,-4.85
504740,1989,24016,136,99992,35.00,-7.21,-4.85
504762,2039,24016,139,99992,35.00,-7.25,-4.91
504784,1959,24016,143,99992,35.00,-7.23,-4.84
504806,1717,24016,149,99992,35.00,-7.26,-4.88
504828,1735,24016,171,99992,35.00,-7.25,-4.87
504870,1831,24016,181,99992,35.00,-7.24,-4.82
504892,1881,24016,182,99992,35.00,-7.26,-4.89
504914,1951,24016,167,99992,35.00,-7.23,-4.83
504936,1871,24016,151,99992,35.00,-7.25,-4.89
504958,1909,24016,123,99992,35.00,-7.24,-4.86
504980,1917,24016,124,99992,35.00,-7.25,-4.85
505721,2323,24016,148,99992,35.46,-7.21,-4.85
505753,1893,23248,141,99992,35.00,-7.23,-4.88
505775,1709,23248,137,99992,35.00,-7.25,-4.90
505797,1816,23248,125,99992,35.00,-7.24,-4.86
505819,1647,23248,121,99992,35.00,-7.25,-4.79
505841,1822,23248,133,99992,35.00,-7.25,-4.87
505863,1753,23248,147,99992,35.00,-7.24,-4.85
505885,1800,23248,153,99992,35.00,-7.25,-4.85
505907,1725,23248,165,99992,35.00,-7.27,-4.85
505929,1705,23248,172,99992,35.00,-7.24,-4.86
505951,1693,23248,167,99992,35.00,-7.24,-4.86
505993,1791,23248,156,99992,35.00,-7.22,-4.84
506742,1951,23248,143,99992,35.47,-7.24,-4.84
506775,1715,24016,155,99908,35.00,-7.23,-4.83
506797,1867,24016,132,99651,35.00,-7.26,-4.85
506819,1835,24016,135,99472,35.00,-7.25,-4.85
506841,1684,24016,137,99334,35.00,-7.24,-4.88
506863,1747,24016,151,99213,35.00,-7.27,-4.90
506885,1779,24016,166,99081,35.00,-7.24,-4.85
506907,1913,24016,171,98990,35.00,-7.28,-4.87
506929,1609,24016,167,98918,35.00,-7.28,-4.85
506951,1847,24016,163,98888,35.00,-7.25,-4.86
506973,1862,24016,149,98915,35.00,-7.23,-4.87
507516,1815,24016,139,98981,35.91,-7.26,-4.81
507557,1821,24016,131,99160,35.00,-7.24,-4.88
507579,1694,24016,131,99086,35.00,-7.27,-4.86
507601,1949,24016,149,99021,35.00,-7.26,-4.86
507623,1765,24016,157,98988,35.00,-7.24,-4.85
507645,1703,24016,169,98990,35.00,-7.24,-4.91
507667,1636,24016,168,99005,35.00,-7.29,-4.85
507689,1635,24528,163,99098,35.00,-7.24,-4.84
507711,1633,24016,151,99194,35.00,-7.26,-4.87
507733,1631,24016,139,99270,35.00,-7.28,-4.86
507755,1557,24016,121,99318,35.00,-7.25,-4.85
507798,1817,24528,126,99403,35.00,-7.27,-4.87
507820,1624,24016,125,99461,35.00,-7.23,-4.85
507842,1641,24016,149,99512,35.00,-7.23,-4.88
507864,1675,24016,153,99546,35.00,-7.21,-4.85
507886,1493,24016,153,99612,35.00,-7.26,-4.86
507908,1682,24016,163,99682,35.00,-7.28,-4.87
507930,1623,24016,151,99752,35.00,-7.24,-4.88
507952,1779,24016,141,99805,35.00,-7.24,-4.86
507974,1781,24016,133,99833,35.00,-7.25,-4.85
507996,2111,24016,139,99875,35.00,-7.25,-4.91
508038,1940,24016,133,99875,35.00,-7.24,-4.87
508060,1899,24016,141,99875,35.00,-7.24,-4.86
508082,1883,24016,150,99875,35.00,-7.23,-4.85
508104,1567,24016,157,99875,35.00,-7.29,-4.86
508126,1593,24016,159,99875,35.00,-7.25,-4.86
508148,1719,24016,167,99875,35.00,-7.22,-4.88
508170,1870,24016,158,99875,35.00,-7.25,-4.90
508192,1739,24016,145,99875,35.00,-7.25,-4.84
508214,1583,24016,123,99875,35.00,-7.23,-4.86
508236,1820,24016,127,99875,35.00,-7.25,-4.86
508258,1639,24016,123,99875,35.00,-7.23,-4.80
508299,1801,24016,139,99574,35.00,-7.25,-4.85
508321,1419,24016,136,99497,35.00,-7.24,-4.88
508343,1659,24016,150,99440,35.00,-7.25,-4.86
508365,1532,24016,159,99420,35.00,-7.21,-4.87
508387,1659,24016,145,99436,35.00,-7.24,-4.85
508409,1661,24016,125,99498,35.00,-7.28,-4.87
508431,1705,24016,123,99576,35.00,-7.24,-4.84
508453,1608,24016,139,99655,35.00,-7.27,-4.88
508475,1839,24016,139,99704,35.00,-7.26,-4.85
508497,2201,24016,149,99752,35.00,-7.26,-4.88
508540,2232,24016,151,99803,35.00,-7.26,-4.87
508562,1609,24016,151,99833,35.00,-7.27,-4.86
508584,1726,24016,168,99883,35.00,-7.25,-4.84
508606,1898,24016,173,99914,35.00,-7.24,-4.86
508628,2021,24016,167,99961,35.00,-7.24,-4.91
508650,2187,24016,159,99961,35.00,-7.25,-4.86
508672,2093,24016,147,99961,35.00,-7.26,-4.81
508694,2067,23248,147,99961,35.00,-7.26,-4.86
508716,1991,24016,138,99961,35.00,-7.19,-4.84
508738,1963,23248,135,99961,35.00,-7.24,-4.88
508780,2517,23248,163,99961,35.00,-7.24,-4.85
508802,1661,23248,159,99961,35.00,-7.26,-4.86
508824,1918,23248,175,99961,35.00,-7.27,-4.86
508846,1843,23248,179,99961,35.00,-7.23,-4.88
508868,2079,23248,175,99961,35.00,-7.26,-4.87
508890,1775,23248,155,99961,35.00,-7.25,-4.83
508912,1900,24016,145,99961,35.00,-7.26,-4.84
508934,1971,24016,137,99961,35.00,-7.25,-4.88
508956,1993,24016,133,99961,35.00,-7.27,-4.86
508978,1669,23248,133,99961,35.00,-7.24,-4.88
509549,1773,23248,147,99961,35.43,-7.28,-4.84
509582,1715,23248,137,99961,35.00,-7.24,-4.83
509604,1579,23248,163,99961,35.00,-7.19,-4.86
509626,1501,23248,162,99961,35.00,-7.25,-4.84
509648,1692,23248,149,99961,35.00,-7.26,-4.88
509670,1604,23248,145,99961,35.00,-7.28,-4.82
509692,1693,23248,124,99961,35.00,-7.28,-4.87
509714,1784,23248,133,99961,35.00,-7.25,-4.87
509736,1821,23248,127,99961,35.00,-7.28,-4.85
509758,1683,23248,139,99869,35.00,-7.24,-4.85
509780,1797,23248,155,99583,35.00,-7.24,-4.86
509802,1453,23248,165,99406,35.00,-7.26,-4.88
509843,1617,23248,167,99200,35.00,-7.30,-4.89
509865,1786,23248,176,99192,35.00,-7.22,-4.89
509887,1773,24016,159,99209,35.00,-7.25,-4.88
509909,1763,24016,146,99251,35.00,-7.25,-4.88
509931,1661,23248,133,99308,35.00,-7.25,-4.89
509953,1689,23248,135,99373,35.00,-7.27,-4.88
509975,1575,23248,122,99428,35.00,-7.26,-4.87
509997,1715,23248,135,99458,35.00,-7.25,-4.87
510570,1726,24016,145,99482,35.88,-7.27,-4.85
510605,1695,23248,114,98432,35.00,-7.24,-4.87
510627,1753,23248,153,98489,35.00,-7.23,-4.89
510649,1812,23248,147,98572,35.00,-7.24,-4.91
510671,1583,23248,125,98637,35.00,-7.26,-4.82
510693,1501,23248,119,98712,35.00,-7.25,-4.85
510715,1961,23248,138,98773,35.00,-7.28,-4.90
510737,2053,23248,153,98830,35.00,-7.22,-4.84
510759,2095,23248,167,98876,35.00,-7.24,-4.86
510781,1900,23248,180,98928,35.00,-7.23,-4.85
510803,1779,23248,151,98975,35.00,-7.24,-4.81
510845,1353,23248,119,99175,35.00,-7.26,-4.83
510867,1699,22736,147,99232,35.00,-7.25,-4.90
510889,1797,22736,147,99288,35.00,-7.25,-4.86
510911,1651,22736,131,99337,35.00,-7.25,-4.82
510933,1693,22736,120,99395,35.00,-7.25,-4.85
510955,1774,22736,123,99424,35.00,-7.24,-4.89
510977,1927,22736,141,99461,35.00,-7.27,-4.86
510999,1792,22736,148,99489,35.00,-7.24,-4.84
511021,1449,22736,149,99520,35.00,-7.26,-4.86
511043,1571,22352,156,99577,35.00,-7.28,-4.88
511065,1583,22352,153,99635,35.00,-7.26,-4.88
511106,1737,22352,143,99810,35.00,-7.24,-4.82
511128,1779,22736,149,99864,35.00,-7.26,-4.82
511150,1925,22736,133,99890,35.00,-7.25,-4.87
511172,1945,22736,122,99821,35.00,-7.26,-4.86
511194,2041,22352,125,99600,35.00,-7.24,-4.87
511216,1691,22352,132,99276,35.00,-7.26,-4.86
511238,1672,22352,141,99020,35.00,-7.25,-4.84
511260,1574,22352,157,98841,35.00,-7.24,-4.85
511282,1671,22352,158,98731,35.00,-7.26,-4.87
511304,1609,22352,155,98647,35.00,-7.21,-4.87
511347,1813,22352,151,98598,35.00,-7.25,-4.86
511369,1949,22352,139,98687,35.00,-7.25,-4.86
511391,1920,22352,139,98837,35.00,-7.25,-4.85
511413,1685,22352,137,98953,35.00,-7.23,-4.86
511435,1883,22352,141,99045,35.00,-7.23,-4.86
511457,1707,22352,142,99102,35.00,-7.25,-4.84
511479,1949,22352,159,99165,35.00,-7.24,-4.86
511501,1741,22352,169,99217,35.00,-7.25,-4.82
511523,1559,22352,173,99264,35.00,-7.24,-4.86
511545,2079,22352,173,99318,35.00,-7.29,-4.87
511587,1715,22352,153,99441,35.00,-7.30,-4.85
511609,1863,22736,127,99471,35.00,-7.28,-4.84
511631,1913,22736,125,99520,35.00,-7.26,-4.87
511653,1763,22736,126,99568,35.00,-7.27,-4.85
511675,1545,22736,133,99571,35.00,-7.25,-4.86
511697,1851,22736,157,99585,35.00,-7.28,-4.86
511719,1561,22736,157,99592,35.00,-7.22,-4.85
511741,1494,22736,163,99603,35.00,-7.24,-4.85
511763,1848,22736,169,99629,35.00,-7.27,-4.87
511785,1683,22736,157,99641,35.00,-7.28,-4.88
511828,1959,23248,159,99753,35.00,-7.23,-4.88
511850,2121,22736,148,99795,35.00,-7.23,-4.89
511872,2149,23248,141,99814,35.00,-7.26,-4.84
511894,1863,23248,135,99666,35.00,-7.26,-4.87
511916,1745,23248,137,99415,35.00,-7.29,-4.85
511938,1607,23248,153,99117,35.00,-7.27,-4.86
511960,1657,22736,173,98905,35.00,-7.26,-4.85
511982,1573,23248,169,98760,35.00,-7.24,-4.83
512356,1679,23248,167,98669,36.04,-7.25,-4.85
512389,1385,21072,145,99451,35.00,-7.26,-4.85
512411,1544,21072,109,99476,35.00,-7.26,-4.85
512433,1533,21072,115,99507,35.00,-7.26,-4.86
512455,1417,21072,125,99547,35.00,-7.24,-4.85
512477,1447,21072,148,99585,35.00,-7.27,-4.88
512499,1619,21072,179,99623,35.00,-7.24,-4.85
512521,1695,21072,183,99695,35.00,-7.28,-4.82
512543,1915,21072,181,99757,35.00,-7.25,-4.86
512565,1928,21072,178,99810,35.00,-7.27,-4.88
512587,2299,21072,171,99804,35.00,-7.24,-4.87
512630,2183,21840,153,99107,35.00,-7.26,-4.85
512652,2127,21840,127,98862,35.00,-7.27,-4.84
512674,1719,21840,121,98710,35.00,-7.22,-4.84
512696,1495,21840,116,98604,35.00,-7.28,-4.86
512718,1262,21840,139,98525,35.00,-7.23,-4.88
512740,1355,21840,163,98466,35.00,-7.27,-4.84
512762,1533,21840,171,98430,35.00,-7.25,-4.88
512784,1659,21840,159,98445,35.00,-7.26,-4.84
512806,1942,21840,165,98540,35.00,-7.24,-4.86
512828,2235,21840,157,98662,35.00,-7.22,-4.85
512870,2281,21840,165,98860,35.00,-7.22,-4.87
512892,2197,21840,153,98868,35.00,-7.23,-4.88
512914,2053,21840,150,98913,35.00,-7.28,-4.87
512936,1791,21840,145,98941,35.00,-7.24,-4.88
512958,1529,21840,155,98986,35.00,-7.22,-4.88
512980,1437,21840,159,99030,35.00,-7.27,-4.89
513376,1401,21840,155,99100,36.02,-7.25,-4.85
513412,1433,21840,158,98363,35.00,-7.26,-4.88
513434,1597,21840,133,98325,35.00,-7.28,-4.85
513456,1383,21840,141,98299,35.00,-7.20,-4.80
513478,1325,21840,145,98314,35.00,-7.24,-4.86
513500,1444,21840,158,98386,35.00,-7.27,-4.90
513522,1369,21840,163,98507,35.00,-7.24,-4.86
513544,1615,21840,157,98617,35.00,-7.27,-4.86
513566,1671,21840,150,98691,35.00,-7.27,-4.87
513588,1907,21840,147,98713,35.00,-7.23,-4.88
513610,1821,21840,137,98745,35.00,-7.27,-4.86
513652,2120,21840,149,98832,35.00,-7.27,-4.81
513674,2037,21840,152,98855,35.00,-7.28,-4.85
513696,1365,21840,151,98889,35.00,-7.23,-4.87
513718,1913,21840,167,98921,35.00,-7.29,-4.88
513740,1479,21072,157,98964,35.00,-7.23,-4.86
513762,1559,21840,146,98993,35.00,-7.25,-4.84
513784,1557,21840,125,99031,35.00,-7.24,-4.85
513806,1461,21840,109,99037,35.00,-7.22,-4.83
513828,1453,21840,105,99064,35.00,-7.26,-4.90
513850,1678,21072,115,99096,35.00,-7.26,-4.87
513872,1707,21840,137,99148,35.00,-7.27,-4.86
513913,1895,21840,160,99284,35.00,-7.22,-4.84
513935,2187,21072,172,99330,35.00,-7.30,-4.88
513957,2129,21072,189,99365,35.00,-7.24,-4.88
513979,2137,21072,189,99371,35.00,-7.25,-4.91
514397,2072,21840,173,99325,35.69,-7.25,-4.87
514434,2030,21072,187,98976,35.00,-7.26,-4.87
514456,1645,21840,171,99029,35.00,-7.23,-4.82
514478,1861,21840,183,99076,35.00,-7.22,-4.84
514500,2253,21840,171,99115,35.00,-7.26,-4.87
514522,1718,21840,137,99143,35.00,-7.23,-4.89
514544,1734,21840,126,99192,35.00,-7.23,-4.87
514566,1527,21840,125,99251,35.00,-7.24,-4.85
514588,1839,21840,134,99290,35.00,-7.26,-4.85
514610,1749,21840,135,99333,35.00,-7.23,-4.84
514632,1767,21840,149,99373,35.00,-7.29,-4.87
514675,1716,21840,160,99468,35.00,-7.27,-4.85
514697,1833,21840,169,99483,35.00,-7.24,-4.84
514719,1781,21840,153,99397,35.00,-7.23,-4.86
514741,1768,21840,141,99133,35.00,-7.25,-4.89
514763,1587,21840,142,98816,35.00,-7.23,-4.83
514785,1707,21840,142,98561,35.00,-7.26,-4.83
514807,1749,21840,137,98409,35.00,-7.23,-4.84
514829,1721,21840,132,98294,35.00,-7.25,-4.87
514851,1785,22352,141,98217,35.00,-7.22,-4.85
514873,1740,22352,147,98174,35.00,-7.25,-4.88
514915,1721,21840,158,98301,35.00,-7.25,-4.85
514937,1577,21840,160,98413,35.00,-7.27,-4.83
514959,1704,21840,165,98505,35.00,-7.21,-4.88
514981,1664,21840,157,98569,35.00,-7.23,-4.88
515418,1791,21840,155,98609,36.95,-7.27,-4.84
515457,1540,21840,155,98935,35.00,-7.24,-4.86
515479,1509,21840,159,98633,35.00,-7.23,-4.84
515501,1887,21840,152,98362,35.00,-7.26,-4.86
515523,1911,22352,140,98171,35.00,-7.26,-4.85
515545,1783,22352,117,98048,35.00,-7.28,-4.85
515567,1705,22352,115,97954,35.00,-7.27,-4.89
515589,1847,21840,119,97891,35.00,-7.27,-4.86
515611,1831,21840,139,97875,35.00,-7.27,-4.82
515633,1838,21840,151,97894,35.00,-7.26,-4.85
515655,1683,21840,157,97974,35.00,-7.26,-4.87
515697,1581,21840,164,98336,35.00,-7.23,-4.90
515719,1661,21840,159,98385,35.00,-7.25,-4.86
515741,1743,22352,142,98422,35.00,-7.28,-4.88
515763,1919,22352,141,98472,35.00,-7.28,-4.85
515785,1838,22352,123,98536,35.00,-7.27,-4.89
515807,1893,22352,121,98592,35.00,-7.27,-4.87
515829,1960,22352,125,98673,35.00,-7.26,-4.86
515851,1785,22352,141,98730,35.00,-7.25,-4.85
515873,1810,21840,147,98782,35.00,-7.25,-4.86
515895,1757,21840,164,98850,35.00,-7.24,-4.86
515917,1659,22352,159,98917,35.00,-7.23,-4.82
515958,1755,22352,164,99029,35.00,-7.25,-4.85
515980,1766,21840,157,99109,35.00,-7.27,-4.85
516694,1869,22352,145,99147,36.48,-7.27,-4.84
516720,1591,21840,169,98934,35.00,-7.24,-4.85
516742,1977,21840,147,98915,35.00,-7.24,-4.82
516764,1885,21840,133,98918,35.00,-7.26,-4.85
516786,1903,21840,137,98939,35.00,-7.28,-4.82
516808,2066,21840,151,98979,35.00,-7.24,-4.85
516830,2168,22352,171,99016,35.00,-7.25,-4.83
516852,2195,21840,175,99056,35.00,-7.27,-4.81
516874,1853,21840,173,99084,35.00,-7.25,-4.86
516896,1631,21840,165,99107,35.00,-7.25,-4.86
516918,1831,21840,156,99118,35.00,-7.24,-4.83
516960,1715,21840,137,98524,35.00,-7.21,-4.85
516982,1691,22352,122,98193,35.00,-7.25,-4.84
517715,1627,22352,119,97983,35.90,-7.25,-4.86
517742,1695,21840,126,97919,35.00,-7.26,-4.86
517764,1510,21840,99,97845,35.00,-7.23,-4.86
517786,1638,21840,117,97813,35.00,-7.25,-4.90
517808,1629,21840,133,97793,35.00,-7.19,-4.84
517830,1527,21840,142,97797,35.00,-7.24,-4.86
517852,1611,21840,163,97821,35.00,-7.25,-4.85
517874,1817,21840,173,97924,35.00,-7.24,-4.85
517896,1918,21840,173,98034,35.00,-7.27,-4.87
517918,2136,21840,169,98123,35.00,-7.24,-4.86
517940,2093,21840,149,98183,35.00,-7.23,-4.84
517983,1955,21840,103,98286,35.00,-7.24,-4.89
518736,1746,21840,119,98344,35.58,-7.23,-4.88
518765,1811,21840,143,98429,35.00,-7.27,-4.90
518787,1736,21840,135,98477,35.00,-7.26,-4.90
518809,1663,21840,145,98538,35.00,-7.25,-4.88
518831,1605,21840,159,98594,35.00,-7.25,-4.86
518853,1643,21840,157,98637,35.00,-7.25,-4.81
518875,1706,21840,154,98688,35.00,-7.28,-4.87
518897,1813,21840,147,98740,35.00,-7.24,-4.85
518919,1791,21840,147,98789,35.00,-7.27,-4.86
518941,1879,22352,135,98813,35.00,-7.27,-4.81
518963,1927,21840,126,98865,35.00,-7.25,-4.89
519505,1833,21840,126,98997,35.75,-7.22,-4.87
519546,1597,20368,137,98616,35.00,-7.24,-4.84
519568,2100,20368,151,98691,35.00,-7.24,-4.84
519590,1948,19856,167,98744,35.00,-7.25,-4.86
519612,1762,19856,155,98796,35.00,-7.23,-4.88
519634,1919,19856,155,98847,35.00,-7.26,-4.85
519656,1490,19856,141,98894,35.00,-7.28,-4.89
519678,1507,19856,133,98927,35.00,-7.27,-4.86
519700,1823,19856,125,98973,35.00,-7.23,-4.86
519722,2396,19856,135,99023,35.00,-7.24,-4.84
519744,2040,19856,125,99093,35.00,-7.25,-4.87
519766,1673,19856,136,99175,35.00,-7.26,-4.82
519807,1661,19856,148,99463,35.00,-7.26,-4.87
519829,1963,19856,157,99535,35.00,-7.30,-4.87
519851,2021,19856,167,99586,35.00,-7.27,-4.87
519873,1703,19856,159,99587,35.00,-7.20,-4.88
519895,1845,19856,158,99429,35.00,-7.24,-4.90
519917,1785,19856,145,99129,35.00,-7.27,-4.84
519939,2468,19856,149,98834,35.00,-7.24,-4.86
519961,2110,19856,136,98603,35.00,-7.24,-4.86
519983,1957,19856,135,98493,35.00,-7.27,-4.85
520522,2012,19856,155,98444,35.53,-7.27,-4.87
520552,1898,20560,147,98444,35.00,-7.26,-4.86
520574,1560,20560,159,98444,35.00,-7.28,-4.82
520596,1833,20560,173,98444,35.00,-7.28,-4.85
520618,1761,20560,142,98444,35.00,-7.29,-4.85
520640,1669,20560,139,98444,35.00,-7.24,-4.88
520662,2607,20560,155,99968,35.00,-7.24,-4.86
520684,1802,20560,146,99632,35.00,-7.24,-4.83
520706,1416,21072,135,99374,35.00,-7.30,-4.85
520728,1263,20560,149,99200,35.00,-7.05,-4.88
520769,2211,20560,163,99154,35.00,-7.32,-4.82
520791,1333,20560,154,99253,35.00,-7.28,-4.90
520813,1373,21072,143,99411,35.00,-7.23,-4.86
520835,1820,21072,139,99608,35.00,-7.28,-4.85
520857,1307,21072,123,99798,35.00,-7.26,-4.85
520879,1998,21072,133,99893,35.00,-7.30,-4.94
520901,1515,21072,118,99894,35.00,-7.29,-5.40
520923,2248,20560,154,99815,35.00,-7.41,-4.98
520945,1357,20560,136,99711,35.00,-7.23,-4.86
520967,1228,20560,153,99627,35.00,-7.26,-4.93
520989,1991,20368,175,99585,35.00,-7.28,-4.89
521030,1492,19856,171,99338,35.00,-7.21,-4.88
521052,1297,18192,167,99169,35.00,-7.23,-4.89
521074,2099,18576,115,99055,35.00,-7.19,-5.41
521096,0,18192,111,98890,35.00,-6.98,-5.14
521118,3755,18192,175,98781,35.00,-7.30,-4.84
521140,521,19088,53,98624,35.00,-7.53,-4.54
521162,379,19088,115,98438,35.00,-6.99,-5.07
521184,2015,19856,163,98244,35.00,-7.28,-4.87
521206,1940,19856,149,98076,35.00,-7.24,-5.08
521228,1421,19856,120,97857,35.00,-7.31,-5.07
521271,566,18192,165,97268,35.00,-7.29,-4.87
521293,1362,18192,122,97187,35.00,-7.15,-4.93
521315,799,18576,153,97132,35.00,-7.26,-4.94
521337,1213,19088,133,97026,35.00,-7.19,-4.91
521359,2699,19088,155,96885,35.00,-7.25,-4.89
521381,2357,19088,127,96583,35.00,-7.25,-4.95
521403,2056,18576,147,96168,35.00,-7.25,-4.95
521425,1431,20368,147,95795,35.00,-7.34,-5.18
521447,1435,20368,118,95482,35.00,-7.23,-5.20
521469,1469,19856,183,95180,35.00,-7.39,-4.42
521511,2437,20368,174,94657,35.00,-7.13,-4.94
521533,868,20368,92,94486,35.00,-6.72,-6.63
521555,14,19088,111,93999,35.00,-7.12,-4.73
521577,3700,18576,156,93996,35.00,-7.34,-4.75
521599,2891,18192,153,93873,35.00,-7.28,-4.97
521621,1387,18192,125,93964,35.00,-7.16,-4.96
521643,888,18192,147,93999,35.00,-7.24,-4.86
521665,1753,17680,169,94033,35.00,-7.32,-4.97
521687,2548,18192,184,94044,35.00,-7.23,-4.93
521709,2427,18192,178,94101,35.00,-7.30,-5.53
521731,1655,18576,142,94114,35.00,-7.16,-5.13
521772,1611,18192,167,93500,35.00,-7.27,-4.99
521794,2347,17680,144,93276,35.00,-7.02,-5.16
521816,1551,17680,117,93119,35.00,-7.46,-4.99
521838,1751,17680,121,92836,35.00,-7.05,-4.60
521860,2343,16912,135,92651,35.00,-7.36,-5.04
521882,1717,16912,115,92584,35.00,-7.21,-5.08
521904,1468,16912,137,92558,35.00,-7.27,-4.88
521926,1339,16912,154,92793,35.00,-7.27,-4.80
521948,1941,16912,167,93322,35.00,-7.40,-4.89
521970,1405,17680,157,94130,35.00,-6.94,-4.98
522564,1204,17680,126,97141,36.10,-7.47,-4.46
522594,1654,21072,169,97141,35.00,-7.20,-4.91
522616,1643,21840,132,97141,35.00,-7.19,-4.91
522638,2072,21840,126,97141,35.00,-7.19,-4.90
522660,2111,22352,135,97141,35.00,-7.19,-4.87
522682,1839,22352,139,97141,35.00,-7.20,-4.95
522704,1436,22352,152,97141,35.00,-7.20,-4.92
522726,1516,21840,159,97141,35.00,-7.24,-4.89
522748,1557,22352,165,97141,35.00,-7.23,-4.93
522770,1751,22352,169,97141,35.00,-7.19,-4.92
522792,1849,22352,159,97141,35.00,-7.21,-4.91
522834,1919,22352,150,97141,35.00,-7.23,-4.93
522856,1973,22352,127,97141,35.00,-7.23,-4.91
522878,1943,22352,127,99663,35.00,-7.20,-4.90
522900,1251,22352,121,99293,35.00,-7.17,-4.93
522922,1811,22352,147,99060,35.00,-7.20,-4.91
522944,1912,22352,167,98918,35.00,-7.18,-4.91
522966,1816,22352,173,98830,35.00,-7.22,-4.93
522988,1679,22352,173,98778,35.00,-7.23,-4.89
523583,1797,22352,167,98751,35.21,-7.23,-4.92
523616,1693,22736,179,99634,35.00,-7.18,-4.94
523638,2075,22736,154,99300,35.00,-7.18,-4.90
523660,2157,22736,159,99089,35.00,-7.22,-4.95
523682,1968,22736,154,98933,35.00,-7.24,-4.93
523704,1594,22736,141,98808,35.00,-7.18,-4.88
523726,1143,22736,141,98729,35.00,-7.20,-4.92
523748,1439,22736,159,98686,35.00,-7.22,-4.92
523770,1512,22736,158,98753,35.00,-7.22,-4.93
523792,1704,22736,149,98865,35.00,-7.19,-4.92
523814,1895,22736,137,98979,35.00,-7.21,-4.88
523836,1789,22736,137,99066,35.00,-7.19,-4.91
523877,1747,22736,134,99213,35.00,-7.21,-4.97
523899,2031,22736,159,99254,35.00,-7.22,-4.94
523921,2057,22736,162,99268,35.00,-7.23,-4.95
523943,1811,22736,153,99296,35.00,-7.22,-4.93
523965,1497,22736,154,99374,35.00,-7.19,-4.94
523987,1236,22736,156,99441,35.00,-7.20,-4.98
524349,1385,22736,157,99502,34.44,-7.22,-4.92
524378,1903,22736,151,98826,35.00,-7.21,-4.89
524400,1875,22736,149,98686,35.00,-7.20,-4.92
524422,1709,22736,159,98581,35.00,-7.21,-4.95
524444,1891,22736,175,98502,35.00,-7.24,-4.92
524466,1830,22736,173,98448,35.00,-7.22,-4.92
524488,1653,22736,167,98451,35.00,-7.24,-4.92
524510,1817,22736,153,98540,35.00,-7.19,-4.96
524532,2025,22736,151,98670,35.00,-7.21,-4.96
524554,2063,22736,147,98767,35.00,-7.22,-4.89
524576,1949,22736,134,98818,35.00,-7.20,-4.90
524598,1869,22736,135,98867,35.00,-7.21,-4.91
524639,1811,22736,146,99058,35.00,-7.21,-4.92
524661,1725,22736,138,99130,35.00,-7.21,-4.91
524683,1575,22736,155,99186,35.00,-7.20,-4.93
524705,1561,22736,174,99239,35.00,-7.20,-4.91
524727,1659,22736,179,99322,35.00,-7.21,-4.93
524749,1852,22736,167,99395,35.00,-7.22,-4.90
524771,2041,22736,159,99459,35.00,-7.20,-4.90
524793,2021,22736,141,99520,35.00,-7.23,-4.91
524815,2099,22736,141,99582,35.00,-7.21,-4.93
524837,1979,22736,137,99645,35.00,-7.17,-4.92
524879,1757,22736,149,99752,35.00,-7.19,-4.91
524901,1629,22736,151,99780,35.00,-7.19,-4.90
524923,1625,22736,156,99834,35.00,-7.21,-4.91
524945,1579,22736,152,99893,35.00,-7.18,-4.90
524967,1579,22352,147,99959,35.00,-7.21,-4.93
524989,1443,22352,137,99995,35.00,-7.21,-4.90
525367,1485,22352,135,99995,34.96,-7.24,-4.93
525401,2117,21072,156,98928,35.00,-7.20,-4.92
525423,1598,21072,153,98986,35.00,-7.20,-4.93
525445,1407,21072,163,99057,35.00,-7.19,-4.94
525467,1469,21072,158,99108,35.00,-7.22,-4.91
525489,1640,21840,151,99162,35.00,-7.24,-4.89
525511,1881,21840,141,99213,35.00,-7.20,-4.91
525533,2072,21840,145,99264,35.00,-7.20,-4.91
525555,1823,21840,141,99309,35.00,-7.24,-4.94
525577,1747,21840,140,99334,35.00,-7.24,-4.92
525599,1972,21840,155,99375,35.00,-7.19,-4.89
525641,2037,21840,167,99507,35.00,-7.17,-4.91
525663,1855,21840,165,99545,35.00,-7.20,-4.90
525685,1598,21840,161,99618,35.00,-7.22,-4.91
525707,1517,21840,157,99691,35.00,-7.20,-4.92
525729,1545,21840,151,99757,35.00,-7.24,-4.94
525751,1693,21840,140,99790,35.00,-7.23,-4.91
525773,1804,21840,137,99785,35.00,-7.21,-4.89
525795,1909,21840,135,99665,35.00,-7.24,-4.94
525817,1959,21840,145,99392,35.00,-7.21,-4.89
525839,1909,21840,163,99051,35.00,-7.20,-4.92
525861,1165,21840,155,98768,35.00,-7.16,-4.93
525902,1435,21840,159,98238,35.00,-7.20,-4.91
525924,1379,21072,151,98173,35.00,-7.22,-4.88
525946,1531,21072,158,98169,35.00,-7.21,-4.96
525968,1653,21840,148,98215,35.00,-7.21,-4.92
525990,1705,21840,139,98309,35.00,-7.23,-4.91
526386,1797,21840,133,98415,35.41,-7.22,-4.91
526423,1748,21840,155,98415,35.00,-7.23,-4.92
526445,1707,21840,173,98415,35.00,-7.18,-4.88
526467,1847,21840,156,98415,35.00,-7.18,-4.95
526489,1878,21840,143,98415,35.00,-7.19,-4.92
526511,2037,21840,139,98415,35.00,-7.20,-4.91
526533,2110,21840,140,98415,35.00,-7.20,-4.94
526555,1965,21840,135,98415,35.00,-7.21,-4.92
526577,1911,21840,137,98415,35.00,-7.21,-4.90
526599,1783,21840,149,98415,35.00,-7.26,-4.88
526621,1553,21840,157,98415,35.00,-7.19,-4.91
526643,1846,21840,167,98415,35.00,-7.16,-4.87
526684,1635,22352,166,98415,35.00,-7.20,-4.94
526706,1675,22352,163,98415,35.00,-7.26,-4.92
526728,1829,22352,154,98415,35.00,-7.19,-4.93
526750,1955,22352,138,98415,35.00,-7.19,-4.93
526772,2207,22352,143,98415,35.00,-7.21,-4.90
526794,2189,22352,148,98415,35.00,-7.20,-4.89
526816,2019,22352,158,98415,35.00,-7.20,-4.90
526838,1971,22352,167,98415,35.00,-7.20,-4.93
526860,1809,22352,179,98415,35.00,-7.20,-4.90
526882,1932,22352,173,98415,35.00,-7.21,-4.91
526924,1910,22352,169,98415,35.00,-7.20,-4.91
526946,1577,22352,135,98415,35.00,-7.27,-4.92
526968,1635,22352,133,98415,35.00,-7.18,-4.88
526990,1771,21840,118,98415,35.00,-7.23,-4.93
527405,1779,21840,135,98415,34.58,-7.23,-4.93
527446,1875,22352,134,98415,35.00,-7.17,-4.88
527468,1571,21840,125,98415,35.00,-7.21,-4.90
527490,1735,22352,127,98415,35.00,-7.20,-4.92
527512,1809,22352,133,98415,35.00,-7.19,-4.90
527534,1771,22352,133,98415,35.00,-7.19,-4.88
527556,1763,22352,147,98415,35.00,-7.20,-4.89
527578,1805,22352,167,98415,35.00,-7.20,-4.94
527600,1989,21840,185,98415,35.00,-7.22,-4.92
527622,2075,22352,191,98415,35.00,-7.22,-4.91
527644,2155,22352,165,98415,35.00,-7.23,-4.93
527686,1851,22352,134,98415,35.00,-7.21,-4.93
527708,1671,22352,135,98415,35.00,-7.18,-4.97
527730,1663,22352,133,98415,35.00,-7.21,-4.95
527752,1752,22352,127,98415,35.00,-7.23,-4.89
527774,1759,22352,135,98415,35.00,-7.19,-4.89
527796,1803,22352,151,98415,35.00,-7.20,-4.93
527818,1830,22352,168,98415,35.00,-7.21,-4.91
527840,1932,22352,167,98415,35.00,-7.19,-4.91
527862,1727,22352,155,98415,35.00,-7.23,-4.90
527884,1624,22352,147,98415,35.00,-7.21,-4.95
527906,1816,22352,155,98415,35.00,-7.21,-4.94
527947,1867,22352,141,98415,35.00,-7.21,-4.94
527969,1789,22352,133,98415,35.00,-7.23,-4.90
527991,1901,22352,136,98415,35.00,-7.19,-4.91
528425,1981,22352,141,98415,35.27,-7.19,-4.92
528454,1881,22352,125,98415,35.00,-7.21,-4.89
528476,1543,22352,127,98415,35.00,-7.19,-4.95
528498,1543,22352,154,98415,35.00,-7.21,-4.93
528520,1593,22352,167,98415,35.00,-7.22,-4.92
528542,1565,22352,167,98415,35.00,-7.18,-4.94
528564,1791,22352,159,98415,35.00,-7.21,-4.90
528586,1916,22352,158,98415,35.00,-7.21,-4.95
528629,2091,22352,153,98415,35.00,-7.20,-4.91
528651,2159,22352,136,98415,35.00,-7.19,-4.89
528673,1891,22736,120,98415,35.00,-7.19,-4.85
528695,1651,22736,132,98415,35.00,-7.22,-4.92
528717,1605,22736,153,98415,35.00,-7.21,-4.92
528739,1567,22352,167,98415,35.00,-7.21,-4.91
528761,1479,22352,169,98415,35.00,-7.19,-4.88
528783,1675,22352,167,98415,35.00,-7.23,-4.95
528805,1875,22352,157,98415,35.00,-7.23,-4.93
528827,2021,22736,151,98415,35.00,-7.22,-4.93
528869,2063,22736,138,98415,35.00,-7.21,-4.89
528891,1803,22352,119,98415,35.00,-7.20,-4.89
528913,1806,22352,134,98415,35.00,-7.20,-4.92
528935,1771,22736,143,99935,35.00,-7.23,-4.95
528957,1671,22352,159,99817,35.00,-7.19,-4.94
528979,1603,22352,169,99732,35.00,-7.21,-4.91
529699,1625,22352,170,99696,35.16,-7.23,-4.89
529731,1695,22736,165,99778,35.00,-7.21,-4.93
529753,1831,22736,139,99806,35.00,-7.26,-4.90
529775,1750,22736,155,99882,35.00,-7.19,-4.91
529797,1787,22736,172,99882,35.00,-7.22,-4.93
529819,1861,22736,171,99882,35.00,-7.20,-4.92
529841,1771,22736,159,99882,35.00,-7.20,-4.91
529863,1763,22736,147,99882,35.00,-7.20,-4.90
529885,1818,22736,149,99882,35.00,-7.21,-5.01
529907,1781,22736,139,99882,35.00,-7.13,-4.85
529929,1736,22736,133,99882,35.00,-7.26,-4.85
529951,1775,22736,136,99882,35.00,-7.17,-4.90
529992,1801,22736,147,99882,35.00,-7.19,-4.90
530718,1864,22736,148,99882,35.40,-7.21,-4.93
530754,1627,22736,159,99882,35.00,-7.20,-4.89
530776,1749,22352,157,99882,35.00,-7.23,-4.88
530798,1771,22736,172,99882,35.00,-7.21,-4.88
530820,1835,22736,173,99882,35.00,-7.20,-4.87
530842,2005,22352,167,99882,35.00,-7.22,-4.89
530864,2037,22736,151,99882,35.00,-7.19,-4.87
530886,2057,22736,121,99882,35.00,-7.19,-4.89
530908,1803,22736,111,99882,35.00,-7.24,-4.89
530930,1757,22736,121,99882,35.00,-7.24,-4.89
530952,1693,22352,137,99882,35.00,-7.24,-4.88
530994,1545,22736,147,99882,35.00,-7.19,-4.91
531738,1715,22352,165,99882,35.16,-7.21,-4.92
531776,1771,22352,158,99882,35.00,-7.22,-4.90
531798,1685,22736,157,99882,35.00,-7.23,-4.90
531820,1701,22736,145,99882,35.00,-7.22,-4.90
531842,1689,22736,125,99882,35.00,-7.24,-4.89
531864,1487,22736,106,99882,35.00,-7.18,-4.92
531886,1519,22736,109,99882,35.00,-7.19,-4.86
531908,1531,22736,105,99882,35.00,-7.21,-4.91
531930,1419,22736,111,99882,35.00,-7.20,-4.92
531952,1421,22736,123,99882,35.00,-7.25,-4.91
531974,1439,22352,147,99882,35.00,-7.23,-4.92
532758,1529,22352,153,99882,34.69,-7.21,-4.92
532799,1809,22736,153,99882,35.00,-7.21,-4.88
532821,1819,22736,148,99882,35.00,-7.20,-4.89
532843,1838,23248,137,99882,35.00,-7.20,-4.93
532865,1822,23248,125,99882,35.00,-7.21,-4.90
532887,1771,23248,125,99882,35.00,-7.25,-4.93
532909,1780,22736,137,99882,35.00,-7.22,-4.90
532931,1671,22736,140,99882,35.00,-7.23,-4.89
532953,1651,22736,158,99882,35.00,-7.17,-4.89
532975,1623,22736,163,99882,35.00,-7.19,-4.91
532997,1624,22736,166,99882,35.00,-7.19,-4.88
533039,1563,22736,155,99882,35.00,-7.18,-4.89
533061,1756,23248,141,99882,35.00,-7.19,-4.90
533083,1717,22736,126,99882,35.00,-7.19,-4.89
533105,1652,23248,119,99882,35.00,-7.22,-4.91
533127,1579,22736,119,99882,35.00,-7.22,-4.87
533149,1639,22736,136,99882,35.00,-7.20,-4.91
533171,1639,22736,139,99882,35.00,-7.20,-4.92
533193,1611,22736,158,99882,35.00,-7.19,-4.92
533215,1527,22736,156,99882,35.00,-7.19,-4.93
533237,1619,22736,157,99882,35.00,-7.22,-4.89
533280,1595,22736,147,99882,35.00,-7.23,-4.89
533302,1675,22736,127,99882,35.00,-7.20,-4.91
533324,1695,22736,115,99882,35.00,-7.25,-4.91
533346,1693,23248,115,99882,35.00,-7.19,-4.90
533368,1607,23248,117,99882,35.00,-7.20,-4.91
533390,1715,22736,140,99882,35.00,-7.23,-4.88
533412,1687,22736,151,99882,35.00,-7.21,-4.93
533434,1735,22736,159,99882,35.00,-7.23,-4.90
533456,1757,22736,166,99882,35.00,-7.19,-4.89
533478,1791,22736,155,99882,35.00,-7.19,-4.91
533520,1919,22736,147,99882,35.00,-7.21,-4.92
533542,2025,22736,137,99882,35.00,-7.21,-4.90
533564,2009,22736,125,99882,35.00,-7.21,-4.90
533586,2037,22736,132,99882,35.00,-7.19,-4.88
533608,1963,22352,138,99882,35.00,-7.20,-4.89
533630,1899,22736,147,99882,35.00,-7.21,-4.90
533652,1845,22736,159,99882,35.00,-7.21,-4.89
533674,1805,22736,169,99882,35.00,-7.21,-4.93
533696,1803,22736,172,99882,35.00,-7.17,-4.89
533718,1894,22352,164,99882,35.00,-7.21,-4.90
533740,1963,22736,157,99882,35.00,-7.16,-4.87
533781,2123,22736,149,99882,35.00,-7.23,-4.90
533803,2147,22736,139,99882,35.00,-7.17,-4.91
533825,2084,22736,137,99882,35.00,-7.20,-4.90
533847,1935,22736,132,99882,35.00,-7.20,-4.89
533869,1853,22736,140,99882,35.00,-7.18,-4.91
533891,1736,22736,149,99882,35.00,-7.15,-4.93
533913,1711,22736,167,99882,35.00,-7.23,-4.91
533935,1663,22736,171,99882,35.00,-7.19,-4.88
533957,1657,22736,157,99882,35.00,-7.23,-4.89
533979,1711,22352,146,99882,35.00,-7.23,-4.88
534021,1791,22736,137,99882,35.00,-7.20,-4.94
534043,1814,22736,123,99882,35.00,-7.24,-4.91
534065,1843,22736,119,99882,35.00,-7.19,-4.90
534087,1809,22736,125,99882,35.00,-7.21,-4.95
534109,1711,22736,141,99882,35.00,-7.18,-4.88
534131,1589,22736,153,99882,35.00,-7.23,-4.89
534153,1559,22736,158,99882,35.00,-7.21,-4.90
534175,1653,22736,167,99882,35.00,-7.22,-4.88
534197,1749,22736,158,99882,35.00,-7.23,-4.91
534219,1739,22736,147,99882,35.00,-7.20,-4.86
534241,1783,22736,135,99882,35.00,-7.21,-4.91
534282,1885,22736,125,99882,35.00,-7.22,-4.87
534304,1830,22736,121,99882,35.00,-7.20,-4.93
534326,1833,22736,132,99882,35.00,-7.20,-4.87
534348,1831,22736,139,99882,35.00,-7.22,-4.90
534370,1725,22736,141,99882,35.00,-7.24,-4.91
534392,1706,22736,160,99882,35.00,-7.18,-4.94
534414,1645,22736,165,99882,35.00,-7.22,-4.86
534436,1669,22352,157,99882,35.00,-7.21,-4.94
534458,1847,22352,151,99882,35.00,-7.22,-4.89
534480,1939,22352,139,99882,35.00,-7.24,-4.93
534523,1925,22736,121,99882,35.00,-7.19,-4.90
534545,1884,22352,118,99882,35.00,-7.20,-4.92
534567,1831,22736,125,99882,35.00,-7.19,-4.89
534589,1783,22736,140,99882,35.00,-7.24,-4.90
534611,1676,22736,155,99882,35.00,-7.19,-4.92
534633,1643,22736,159,99882,35.00,-7.26,-4.91
534655,1717,22352,168,99882,35.00,-7.24,-4.92
534677,1828,22352,157,99882,35.00,-7.19,-4.90
534699,1930,22736,148,99882,35.00,-7.24,-4.90
534721,1989,22736,134,99882,35.00,-7.23,-4.94
534763,1931,22736,126,99882,35.00,-7.23,-4.89
534785,2057,22736,133,99882,35.00,-7.25,-4.88
534807,1912,22736,141,99882,35.00,-7.19,-4.91
534829,1781,22736,147,99882,35.00,-7.24,-4.90
534851,1705,22736,167,99882,35.00,-7.23,-4.87
534873,1812,22736,169,99882,35.00,-7.21,-4.93
534895,1758,22736,169,99882,35.00,-7.16,-4.91
534917,1787,22736,160,99882,35.00,-7.24,-4.89
534939,1927,22736,149,99882,35.00,-7.25,-4.87
534961,1975,22736,139,99882,35.00,-7.20,-4.93
534983,1947,22736,135,99882,35.00,-7.20,-4.88
535024,1918,22736,125,99882,35.00,-7.19,-4.91
535046,1891,22736,128,99882,35.00,-7.18,-4.94
535068,1738,22736,139,99882,35.00,-7.23,-4.91
535090,1669,22736,152,99882,35.00,-7.24,-4.89
535112,1655,22736,164,99882,35.00,-7.22,-4.87
535134,1671,22736,166,99882,35.00,-7.20,-4.91
535156,1771,22736,159,99882,35.00,-7.23,-4.88
535178,1851,22736,152,99882,35.00,-7.21,-4.90
535200,1831,22736,137,99882,35.00,-7.23,-4.89
535222,1807,22736,123,99882,35.00,-7.22,-4.91
535264,1957,22736,126,99882,35.00,-7.19,-4.91
535286,1751,22736,131,99882,35.00,-7.19,-4.94
535308,1685,22736,141,99882,35.00,-7.23,-4.90
535330,1714,22736,156,99882,35.00,-7.21,-4.92
535352,1735,22736,165,99882,35.00,-7.20,-4.93
535374,1689,22736,165,99882,35.00,-7.20,-4.91
535396,1676,22736,155,99882,35.00,-7.20,-4.92
535418,1865,22736,157,99882,35.00,-7.21,-4.91
535440,1961,22736,135,99882,35.00,-7.21,-4.96
535462,1839,22736,123,99882,35.00,-7.20,-4.89
535484,1715,22736,117,99882,35.00,-7.20,-4.93
535525,1799,22736,137,99882,35.00,-7.21,-4.91
535547,1829,22736,137,99882,35.00,-7.24,-4.91
535569,1767,22736,150,99882,35.00,-7.19,-4.92
535591,1695,22736,163,99882,35.00,-7.22,-4.90
535613,1707,22736,165,99882,35.00,-7.22,-4.91
535635,1785,22736,159,99882,35.00,-7.24,-4.87
535657,1811,22736,149,99882,35.00,-7.21,-4.91
535679,1839,22736,145,99882,35.00,-7.24,-4.92
535701,1917,22736,126,99882,35.00,-7.20,-4.88
535723,1848,22736,122,99882,35.00,-7.23,-4.88
535766,1867,22736,123,99882,35.00,-7.22,-4.90
535788,1815,22736,141,99882,35.00,-7.22,-4.89
535810,1679,22736,158,99882,35.00,-7.22,-4.91
535832,1709,22736,165,99882,35.00,-7.22,-4.91
535854,1737,22736,164,99882,35.00,-7.19,-4.92
535876,1801,22736,154,99882,35.00,-7.21,-4.89
535898,1757,22736,140,99882,35.00,-7.21,-4.86
535920,1801,22736,127,99882,35.00,-7.22,-4.92
535942,1934,22736,125,99882,35.00,-7.23,-4.90
535964,1869,22736,122,99882,35.00,-7.22,-4.92
536579,1790,22736,138,99882,34.99,-7.18,-4.90
536610,1719,22736,116,99882,35.00,-7.20,-4.91
536632,1343,22736,154,99882,35.00,-7.23,-4.90
536654,1531,22736,149,99882,35.00,-7.19,-4.91
536676,1619,22736,136,99882,35.00,-7.20,-4.93
536698,1571,22736,125,99882,35.00,-7.20,-4.90
536720,1645,22736,117,99882,35.00,-7.27,-4.90
536742,1791,23248,119,99882,35.00,-7.21,-4.88
536764,1819,23248,119,99882,35.00,-7.21,-4.88
536786,1767,23248,137,99882,35.00,-7.21,-4.90
536828,1629,22736,141,99882,35.00,-7.24,-4.93
536850,1651,22736,153,99882,35.00,-7.20,-4.91
536872,1712,22736,156,99882,35.00,-7.24,-4.91
536894,1755,22736,151,99882,35.00,-7.23,-4.88
536916,1881,22736,142,99882,35.00,-7.21,-4.91
536938,1959,22736,135,99882,35.00,-7.19,-4.89
536960,2093,23248,122,99882,35.00,-7.19,-4.92
536982,2125,23248,124,99882,35.00,-7.22,-4.88
537345,2133,23248,133,99882,35.38,-7.19,-4.92
537373,1833,22736,153,99882,35.00,-7.24,-4.88
537395,1885,23248,154,99882,35.00,-7.22,-4.91
537417,1901,22736,141,99882,35.00,-7.20,-4.90
537439,1920,22736,135,99882,35.00,-7.20,-4.90
537461,1944,22736,133,99882,35.00,-7.25,-4.94
537483,1945,22736,135,99882,35.00,-7.19,-4.91
537505,1827,22736,141,99882,35.00,-7.22,-4.91
537527,1658,22736,149,99882,35.00,-7.24,-4.89
537549,1685,22736,164,99882,35.00,-7.24,-4.91
537590,1724,22736,169,99882,35.00,-7.21,-4.90
537612,1627,23248,163,99882,35.00,-7.18,-4.88
537634,1693,23248,153,99882,35.00,-7.19,-4.92
537656,1703,23248,141,99882,35.00,-7.19,-4.95
537678,1715,23248,123,99882,35.00,-7.18,-4.92
537700,1766,23248,127,99882,35.00,-7.19,-4.90
537722,1725,23248,117,99882,35.00,-7.17,-4.91
537744,1645,23248,135,99882,35.00,-7.24,-4.87
537766,1597,23248,147,99882,35.00,-7.23,-4.92
537788,1548,22736,156,99882,35.00,-7.19,-4.89
537831,1565,23248,155,99882,35.00,-7.20,-4.89
537853,1705,22736,155,99882,35.00,-7.23,-4.88
537875,1723,22736,155,99882,35.00,-7.20,-4.87
537897,1753,23248,135,99882,35.00,-7.19,-4.94
537919,1803,23248,123,99882,35.00,-7.21,-4.91
537941,1805,23248,121,99882,35.00,-7.19,-4.87
537963,1803,23248,123,99882,35.00,-7.21,-4.90
537985,1747,23248,136,99882,35.00,-7.21,-4.92
538364,1741,23248,147,99882,35.49,-7.24,-4.88
538392,1827,23248,151,99882,35.00,-7.21,-4.91
538414,1966,23248,157,99882,35.00,-7.26,-4.91
538436,1961,23248,143,99882,35.00,-7.24,-4.90
538458,1955,22736,135,99882,35.00,-7.21,-4.93
538480,1963,22736,133,99882,35.00,-7.22,-4.88
538502,1864,22736,127,99882,35.00,-7.19,-4.90
538524,1847,22736,139,99882,35.00,-7.21,-4.88
538546,1783,22736,148,99882,35.00,-7.22,-4.92
538568,1695,22736,155,99882,35.00,-7.26,-4.89
538590,1715,22736,163,99882,35.00,-7.18,-4.89
538632,1753,22736,157,99882,35.00,-7.23,-4.94
538654,1811,22736,149,99882,35.00,-7.24,-4.91
538676,1715,22736,133,99882,35.00,-7.25,-4.91
538698,1971,22736,125,99882,35.00,-7.23,-4.92
538720,1863,22736,119,99882,35.00,-7.24,-4.89
538742,1864,23248,125,99882,35.00,-7.21,-4.88
538764,2013,23248,146,99882,35.00,-7.21,-4.90
538786,2010,22736,154,99882,35.00,-7.20,-4.89
538808,1215,21840,141,99882,35.00,-7.22,-4.91
538830,1111,21072,147,99882,35.00,-7.21,-4.88
538852,1106,21072,141,99882,35.00,-7.23,-4.89
538893,499,21072,105,99882,35.00,-7.21,-4.92
538915,1482,20368,118,99882,35.00,-7.24,-4.87
538937,1736,19856,109,99882,35.00,-7.20,-4.88
538959,2013,19856,116,99882,35.00,-7.24,-4.93
538981,2235,19856,119,99882,35.00,-7.20,-4.90
539383,0,19856,87,99882,34.40,-7.24,-4.91
539414,1575,21840,149,99882,35.00,-7.22,-4.95
539436,1787,22352,140,99882,35.00,-7.24,-4.90
539458,1845,22352,137,99882,35.00,-7.22,-4.89
539480,1439,22736,121,99882,35.00,-7.24,-4.93
539502,1378,22352,139,99882,35.00,-7.19,-4.91
539524,1496,22736,144,99882,35.00,-7.21,-4.86
539546,1575,22352,159,99882,35.00,-7.23,-4.94
539568,1591,22736,163,99882,35.00,-7.22,-4.92
539590,1672,22736,163,99882,35.00,-7.24,-4.91
539612,1635,22736,157,99882,35.00,-7.20,-4.94
539634,1542,22736,142,99882,35.00,-7.24,-4.90
539675,1709,22736,124,99882,35.00,-7.24,-4.92
539697,1878,22736,133,99882,35.00,-7.20,-4.85
539719,1874,22736,125,99882,35.00,-7.22,-4.90
539741,1807,22736,134,99882,35.00,-7.22,-4.86
539763,1817,22736,146,99882,35.00,-7.18,-4.91
539785,1754,22736,153,99882,35.00,-7.29,-4.94
539807,1656,22736,160,99882,35.00,-7.21,-4.91
539829,1727,22736,165,99882,35.00,-7.25,-4.90
539851,1941,22736,163,99882,35.00,-7.25,-4.92
539873,1896,22736,152,99882,35.00,-7.21,-4.94
539916,1717,22736,127,99882,35.00,-7.22,-4.91
539938,1925,22352,126,99882,35.00,-7.20,-4.88
539960,1959,22736,135,99882,35.00,-7.20,-4.92
539982,1836,22736,142,99882,35.00,-7.22,-4.88
540402,1901,22736,153,99882,35.99,-7.21,-4.92
540437,1706,22736,147,99882,35.00,-7.21,-4.91
540459,1719,22736,114,99882,35.00,-7.23,-4.89
540481,1599,22736,133,99882,35.00,-7.22,-4.88
540503,1676,22736,139,99882,35.00,-7.18,-4.94
540525,1731,22736,159,99882,35.00,-7.22,-4.91
540547,1657,22736,159,99882,35.00,-7.23,-4.91
540569,1637,22736,163,99882,35.00,-7.23,-4.96
540591,1771,22736,155,99882,35.00,-7.23,-4.87
540613,1865,22736,146,99882,35.00,-7.21,-4.90
540635,1864,22736,133,99882,35.00,-7.26,-4.91
540677,1791,22736,122,99882,35.00,-7.23,-4.93
540699,1693,22736,119,99882,35.00,-7.22,-4.91
540721,1461,22736,121,99882,35.00,-7.21,-4.90
540743,1493,22736,138,99882,35.00,-7.24,-4.91
540765,1625,22736,153,99882,35.00,-7.19,-4.85
540787,1771,22736,158,99882,35.00,-7.19,-4.90
540809,1831,22736,159,99882,35.00,-7.19,-4.88
540831,1801,22736,143,99882,35.00,-7.24,-4.91
540853,1811,22736,136,99882,35.00,-7.27,-4.88
540875,1869,22736,119,99882,35.00,-7.20,-4.92
540897,1946,22736,123,99882,35.00,-7.22,-4.93
540938,1948,22736,123,99882,35.00,-7.20,-4.93
540960,1817,22736,133,99882,35.00,-7.24,-4.94
540982,1740,22736,141,99882,35.00,-7.16,-4.87
541421,1863,22736,164,99882,35.45,-7.21,-4.90
541459,1779,22736,139,99882,35.00,-7.22,-4.93
541481,1591,23248,123,99882,35.00,-7.24,-4.93
541503,1527,22736,140,99882,35.00,-7.20,-4.89
541525,1515,23248,151,99882,35.00,-7.22,-4.90
541547,1583,22736,153,99882,35.00,-7.22,-4.90
541569,1573,23248,148,99882,35.00,-7.25,-4.91
541591,1661,23248,145,99882,35.00,-7.19,-4.90
541613,1847,23248,135,99882,35.00,-7.24,-4.91
541635,2003,23248,122,99882,35.00,-7.18,-4.91
541657,1943,23248,110,99882,35.00,-7.24,-4.91
541679,1813,23248,121,99882,35.00,-7.22,-4.84
541720,1791,23248,149,99882,35.00,-7.21,-4.91
541742,2181,23248,182,99882,35.00,-7.20,-4.90
541764,2211,23248,191,99882,35.00,-7.23,-4.90
541786,2151,23248,187,99882,35.00,-7.20,-4.87
541808,2035,23248,181,99882,35.00,-7.21,-4.89
541830,2077,23248,175,99882,35.00,-7.20,-4.94
541852,2293,23248,181,99882,35.00,-7.23,-4.91
541874,2543,23248,202,99882,35.00,-7.19,-4.87
541896,2679,23248,211,99882,35.00,-7.18,-4.90
541918,2365,22736,157,99882,35.00,-7.20,-4.91
541961,1903,23248,135,99882,35.00,-7.21,-4.93
541983,1151,23248,88,99882,35.00,-7.21,-4.91
542696,755,23248,79,99882,35.55,-7.19,-4.89
542722,3896,23248,325,99882,35.00,-7.18,-4.88
542744,3898,23248,351,99882,35.00,-7.20,-4.91
542766,3898,23248,333,99882,35.00,-7.25,-4.88
542788,3899,23248,311,99882,35.00,-7.18,-4.92
542810,3887,23248,277,99882,35.00,-7.19,-4.89
542832,3087,23248,225,99882,35.00,-7.21,-4.89
542854,2581,23248,187,99882,35.00,-7.23,-4.88
542876,2183,23248,160,99882,35.00,-7.23,-4.90
542898,1926,23248,157,99882,35.00,-7.24,-4.90
542920,1439,23248,139,99882,35.00,-7.23,-4.90
542942,647,23248,134,99882,35.00,-7.22,-4.90
542983,735,23248,140,99882,35.00,-7.22,-4.89
543716,483,23248,117,99882,35.30,-7.19,-4.91
543745,1817,23248,137,99882,35.00,-7.21,-4.92
543767,1747,23248,155,99882,35.00,-7.21,-4.88
543789,1817,23248,143,99882,35.00,-7.22,-4.90
543811,1865,23248,123,99882,35.00,-7.25,-4.94
543833,1897,23248,126,99882,35.00,-7.22,-4.93
543855,1879,23248,121,99882,35.00,-7.20,-4.90
543877,1692,23248,119,99882,35.00,-7.22,-4.90
543899,1215,23248,88,99882,35.00,-7.23,-4.87
543921,445,24016,47,99882,35.00,-7.22,-4.89
543943,0,24016,0,99882,35.00,-7.19,-4.92
543986,0,24016,190,99882,35.00,-7.20,-4.89
544736,1486,23248,119,99882,35.26,-7.23,-4.89
544767,1737,23248,151,99882,35.00,-7.19,-4.87
544789,1813,23248,149,99882,35.00,-7.20,-4.91
544811,1799,23248,132,99882,35.00,-7.21,-4.89
544833,1741,23248,121,99882,35.00,-7.22,-4.89
544855,1783,23248,125,99882,35.00,-7.24,-4.89
544877,1695,23248,139,99882,35.00,-7.20,-4.90
544899,1613,23248,148,99882,35.00,-7.19,-4.90
544921,1599,23248,162,99882,35.00,-7.21,-4.87
544943,1631,23248,163,99882,35.00,-7.23,-4.88
544965,1653,24016,158,99882,35.00,-7.25,-4.93
544987,1634,24016,148,99882,35.00,-7.22,-4.88
545028,1705,23248,135,99882,35.00,-7.23,-4.90
545050,1805,23248,125,99882,35.00,-7.21,-4.89
545072,1757,22736,121,99882,35.00,-7.21,-4.87
545094,1717,22736,123,99882,35.00,-7.20,-4.90
545116,1703,22736,140,99882,35.00,-7.18,-4.90
545138,1721,22736,150,99882,35.00,-7.23,-4.88
545160,1688,22736,158,99882,35.00,-7.21,-4.90
545182,1643,22736,165,99987,35.00,-7.21,-4.91
545204,1695,22736,169,99959,35.00,-7.24,-4.91
545226,1797,22736,156,99959,35.00,-7.21,-4.87
545269,1869,23248,153,99959,35.00,-7.20,-4.89
545291,2036,23248,138,99959,35.00,-7.21,-4.91
545313,2006,23248,133,99959,35.00,-7.22,-4.89
545335,1876,23248,137,99959,35.00,-7.18,-4.90
545357,1765,23248,150,99959,35.00,-7.21,-4.88
545379,1676,23248,155,99959,35.00,-7.22,-4.89
545401,1685,23248,164,99959,35.00,-7.23,-4.90
545423,1695,23248,169,99959,35.00,-7.24,-4.90
545445,1717,23248,160,99959,35.00,-7.19,-4.88
545467,1751,23248,152,99959,35.00,-7.17,-4.89
545509,1830,23248,140,99959,35.00,-7.23,-4.91
545531,2071,23248,149,99959,35.00,-7.19,-4.90
545553,2014,23248,151,99959,35.00,-7.22,-4.92
545575,2011,23248,158,99959,35.00,-7.16,-4.91
545597,2057,22736,168,99959,35.00,-7.17,-4.88
545619,2059,23248,186,99959,35.00,-7.22,-4.92
545641,2010,23248,198,99959,35.00,-7.26,-4.92
545663,1833,22736,187,99959,35.00,-7.22,-4.90
545685,1880,23248,178,99959,35.00,-7.18,-4.91
545707,2004,23248,160,99959,35.00,-7.23,-4.90
545729,2119,23248,149,99959,35.00,-7.20,-4.90
545770,2040,22736,143,99959,35.00,-7.23,-4.93
545792,1741,22736,123,99959,35.00,-7.22,-4.91
545814,1691,22736,138,99959,35.00,-7.24,-4.90
545836,1719,22736,147,99739,35.00,-7.18,-4.88
545858,1581,22736,149,99492,35.00,-7.27,-4.94
545880,1361,22736,125,99280,35.00,-7.23,-4.90
545902,755,22736,98,99168,35.00,-7.18,-4.88
545924,486,22736,54,99121,35.00,-7.18,-4.88
545946,61,22736,115,99169,35.00,-7.22,-4.88
545968,679,22352,104,99277,35.00,-7.21,-4.89
546520,1149,22736,107,99573,34.81,-7.22,-4.89
546552,1594,22736,159,99512,35.00,-7.21,-4.88
546574,1609,22736,127,99421,35.00,-7.17,-4.88
546596,1511,22736,125,99379,35.00,-7.23,-4.90
546618,1255,22736,133,99363,35.00,-7.22,-4.94
546640,1133,22736,122,99394,35.00,-7.21,-4.91
546662,1004,22736,115,99499,35.00,-7.19,-4.91
546684,727,22736,83,99670,35.00,-7.24,-4.88
546706,588,22736,116,99823,35.00,-7.23,-4.86
546728,1167,22736,119,99938,35.00,-7.19,-4.90
546750,1561,22736,121,99938,35.00,-7.25,-4.92
546793,1673,22736,117,99938,35.00,-7.23,-4.87
546815,1617,22736,127,99938,35.00,-7.21,-4.92
546837,1532,22736,146,99938,35.00,-7.24,-4.90
546859,1554,22736,154,99938,35.00,-7.24,-4.87
546881,1747,22736,169,99938,35.00,-7.17,-4.87
546903,1823,22736,158,99938,35.00,-7.25,-4.89
546925,1895,22736,148,99938,35.00,-7.17,-4.94
546947,1907,22736,133,99938,35.00,-7.22,-4.87
546969,1901,22736,133,99938,35.00,-7.23,-4.91
546991,2099,22736,147,99938,35.00,-7.20,-4.91
547033,2255,22736,159,99938,35.00,-7.21,-4.88
547055,2251,22736,151,99938,35.00,-7.23,-4.90
547077,1907,22736,149,99938,35.00,-7.20,-4.87
547099,1757,22736,171,99938,35.00,-7.20,-4.92
547121,1999,22736,212,99938,35.00,-7.21,-4.90
547143,2759,22736,279,99938,35.00,-7.18,-4.91
547165,2970,22736,203,99938,35.00,-7.20,-4.91
547187,2531,22736,153,99938,35.00,-7.18,-4.87
547209,2277,22736,141,99938,35.00,-7.19,-4.90
547231,2139,22736,136,99938,35.00,-7.18,-4.92
547274,1933,22736,135,99937,35.00,-7.24,-4.94
547296,1636,22736,139,99770,35.00,-7.20,-4.91
547318,1542,22736,154,99649,35.00,-7.21,-4.92
547340,1523,22736,158,99588,35.00,-7.22,-4.91
547362,1508,22736,157,99607,35.00,-7.22,-4.87
547384,1543,22736,141,99700,35.00,-7.24,-4.90
547406,1595,22736,133,99867,35.00,-7.21,-4.90
547428,1592,22736,115,99867,35.00,-7.18,-4.95
547450,1610,22736,111,99867,35.00,-7.22,-4.91
547472,1525,22736,109,99867,35.00,-7.20,-4.93
547514,1435,22736,115,99867,35.00,-7.23,-4.89
547536,1353,22736,139,99867,35.00,-7.18,-4.89
547558,1451,22736,163,99867,35.00,-7.21,-4.91
547580,1683,22736,184,99867,35.00,-7.19,-4.91
547602,1979,22736,213,99867,35.00,-7.19,-4.89
547624,2420,22736,215,99867,35.00,-7.22,-4.92
547646,2515,22736,171,99867,35.00,-7.22,-4.89
547668,2281,22736,149,99867,35.00,-7.24,-4.88
547690,2140,22736,133,99867,35.00,-7.22,-4.92
547712,1869,22736,121,99867,35.00,-7.21,-4.88
547734,1627,23248,141,99867,35.00,-7.22,-4.92
547775,1693,22736,153,99867,35.00,-7.23,-4.93
547797,1597,22736,153,99867,35.00,-7.25,-4.91
547819,1623,23248,163,99867,35.00,-7.23,-4.90
547841,1703,22736,173,99867,35.00,-7.18,-4.90
547863,1789,22736,163,99867,35.00,-7.23,-4.91
547885,1887,23248,153,99867,35.00,-7.20,-4.86
547907,1951,23248,148,99867,35.00,-7.19,-4.92
547929,1891,23248,133,99867,35.00,-7.22,-4.85
547951,1800,23248,126,99867,35.00,-7.21,-4.92
547973,1701,22736,145,99867,35.00,-7.20,-4.88
548559,1625,22736,140,100000,34.82,-7.21,-4.84
548597,2013,23248,167,100000,35.00,-7.20,-4.95
548619,2053,23248,183,100000,35.00,-7.24,-4.91
548641,2041,23248,167,100000,35.00,-7.21,-4.94
548663,2073,23248,155,100000,35.00,-7.21,-4.93
548685,2094,23248,153,100000,35.00,-7.22,-4.92
548707,2285,23248,156,100000,35.00,-7.19,-4.87
548729,2301,23248,147,100000,35.00,-7.23,-4.91
548751,2143,23248,147,100000,35.00,-7.24,-4.88
548773,1997,23248,149,100000,35.00,-7.21,-4.94
548795,1845,22736,159,99909,35.00,-7.19,-4.92
548838,1689,23248,151,99641,35.00,-7.19,-4.88
548860,1455,23248,139,99670,35.00,-7.23,-4.87
548882,1431,23248,133,99790,35.00,-7.22,-4.86
548904,1607,23248,141,99942,35.00,-7.21,-4.91
548926,1834,22736,137,99942,35.00,-7.20,-4.88
548948,1835,23248,126,99942,35.00,-7.19,-4.88
548970,1833,23248,110,99942,35.00,-7.19,-4.88
548992,1672,23248,109,99942,35.00,-7.22,-4.90
549578,1288,23248,91,99942,35.18,-7.23,-4.90
549620,2065,23248,203,99767,35.00,-7.18,-4.90
549642,2215,22736,197,99840,35.00,-7.19,-4.90
549664,2232,23248,171,99989,35.00,-7.24,-4.92
549686,2153,23248,157,99989,35.00,-7.18,-4.88
549708,2005,23248,141,99989,35.00,-7.18,-4.92
549730,1799,23248,137,99989,35.00,-7.21,-4.93
549752,1557,23248,137,99989,35.00,-7.21,-4.90
549774,1375,23248,150,99989,35.00,-7.24,-4.87
549796,1349,22736,154,99989,35.00,-7.22,-4.89
549818,1341,23248,157,99989,35.00,-7.24,-4.88
549860,1413,23248,152,99989,35.00,-7.20,-4.88
549882,1481,23248,140,99989,35.00,-7.21,-4.89
549904,1428,23248,119,99989,35.00,-7.23,-4.87
549926,1477,23248,121,99989,35.00,-7.17,-4.89
549948,1523,23248,111,99989,35.00,-7.22,-4.91
549970,1523,23248,120,99989,35.00,-7.19,-4.93
549992,1497,23248,135,99989,35.00,-7.24,-4.92
550598,1434,23248,153,99989,35.87,-7.22,-4.92
550629,1523,22736,139,99989,35.00,-7.24,-4.86
550651,1652,23248,136,99989,35.00,-7.17,-4.92
550673,1671,22736,152,99989,35.00,-7.19,-4.85
550695,1597,22736,155,99989,35.00,-7.21,-4.92
550717,1604,23248,153,99989,35.00,-7.21,-4.91
550739,1661,23248,142,99989,35.00,-7.20,-4.91
550761,1647,23248,127,99989,35.00,-7.22,-4.91
550802,1654,23248,104,99989,35.00,-7.20,-4.90
550824,1545,23248,94,99989,35.00,-7.21,-4.89
550846,1435,23248,92,99989,35.00,-7.19,-4.94
550868,1372,23248,91,99989,35.00,-7.23,-4.91
550890,1331,23248,106,99989,35.00,-7.22,-4.90
550912,1460,23248,157,99989,35.00,-7.21,-4.86
550934,1789,23248,167,99989,35.00,-7.20,-4.87
550956,1883,22736,169,99989,35.00,-7.24,-4.90
550978,2147,23248,179,99989,35.00,-7.25,-4.86
551363,2247,23248,167,99989,34.59,-7.20,-4.89
551404,2104,22736,124,99989,35.00,-7.22,-4.89
551426,2095,22736,125,99989,35.00,-7.18,-4.91
551448,1979,22736,125,99989,35.00,-7.21,-4.88
551470,1919,22736,143,99989,35.00,-7.19,-4.91
551492,1829,22736,155,99989,35.00,-7.24,-4.88
551514,1803,22736,159,99989,35.00,-7.18,-4.90
551536,1809,22736,163,99989,35.00,-7.21,-4.93
551558,1821,22736,154,99989,35.00,-7.25,-4.88
551580,1871,22736,141,99989,35.00,-7.21,-4.92
551602,1930,22736,126,99989,35.00,-7.24,-4.91
551645,1951,22736,123,99989,35.00,-7.21,-4.89
551667,1933,22736,119,99989,35.00,-7.20,-4.88
551689,1881,22736,132,99989,35.00,-7.18,-4.87
551711,1843,22736,146,99989,35.00,-7.22,-4.90
551733,1800,22736,156,99989,35.00,-7.23,-4.87
551755,1773,22736,157,99989,35.00,-7.25,-4.86
551777,1813,22736,163,99989,35.00,-7.22,-4.91
551799,1867,22736,149,99989,35.00,-7.20,-4.87
551821,1919,22736,137,99989,35.00,-7.20,-4.90
551843,1935,22736,127,99989,35.00,-7.20,-4.89
551885,1961,22736,125,99438,35.00,-7.20,-4.88
551907,1979,22736,126,99356,35.00,-7.19,-4.91
551929,1807,22736,141,99356,35.00,-7.20,-4.84
551951,1734,22736,149,99393,35.00,-7.22,-4.89
551973,1753,22736,158,99521,35.00,-7.25,-4.90
551995,1767,22736,167,99674,35.00,-7.19,-4.87
552383,1773,22736,159,99829,36.05,-7.19,-4.92
552411,1741,22736,116,99829,35.00,-7.20,-4.94
552433,1627,22736,155,99829,35.00,-7.24,-4.86
552455,1690,22736,157,99829,35.00,-7.21,-4.91
552477,1679,22736,155,99829,35.00,-7.21,-4.88
552499,1783,22736,143,99829,35.00,-7.23,-4.90
552521,1881,23248,137,99829,35.00,-7.23,-4.91
552543,1942,22736,137,99829,35.00,-7.19,-4.87
552565,1836,22736,121,99829,35.00,-7.22,-4.91
552607,1784,22736,124,99783,35.00,-7.24,-4.91
552629,1799,22736,140,99559,35.00,-7.20,-4.90
552651,1669,22736,153,99421,35.00,-7.24,-4.92
552673,1655,22736,158,99317,35.00,-7.23,-4.91
552695,1655,22736,163,99253,35.00,-7.20,-4.91
552717,1709,22736,150,99242,35.00,-7.18,-4.90
552739,1735,22736,138,99326,35.00,-7.24,-4.90
552761,1846,22736,134,99481,35.00,-7.21,-4.91
552783,1945,22736,125,99643,35.00,-7.21,-4.88
552805,1827,22736,120,99777,35.00,-7.20,-4.92
552848,1747,22736,127,99846,35.00,-7.23,-4.89
552870,1759,22736,152,99894,35.00,-7.19,-4.91
552892,1715,22736,160,99938,35.00,-7.21,-4.92
552914,1706,22736,167,99944,35.00,-7.23,-4.92
552936,1747,22736,159,99937,35.00,-7.22,-4.89
552958,1820,22736,149,99932,35.00,-7.22,-4.88
552980,1927,22736,137,99977,35.00,-7.19,-4.89
553402,1911,22736,124,99977,35.04,-7.22,-4.91
553431,1873,22736,122,99175,35.00,-7.23,-4.87
553453,1753,22736,159,99127,35.00,-7.22,-4.86
553475,1819,22736,159,99140,35.00,-7.21,-4.90
553497,1817,22736,151,99206,35.00,-7.20,-4.93
553519,1805,22736,137,99331,35.00,-7.20,-4.89
553541,1758,22736,123,99494,35.00,-7.25,-4.90
553563,1737,22736,117,99611,35.00,-7.19,-4.93
553585,1675,22736,119,99688,35.00,-7.26,-4.91
553607,1591,22736,135,99747,35.00,-7.20,-4.91
553650,1530,22736,147,99968,35.00,-7.20,-4.88
553672,1523,22736,171,99968,35.00,-7.21,-4.90
553694,1558,22736,167,99968,35.00,-7.19,-4.89
553716,1712,22736,165,99968,35.00,-7.20,-4.92
553738,2089,22736,170,99968,35.00,-7.22,-4.87
553760,2190,22736,157,99968,35.00,-7.27,-4.91
553782,2223,23248,152,99968,35.00,-7.21,-4.93
553804,2218,22736,157,99968,35.00,-7.25,-4.88
553826,2085,22736,171,99968,35.00,-7.21,-4.92
553848,1995,22736,173,99968,35.00,-7.20,-4.89
553890,1975,22736,181,99968,35.00,-7.21,-4.91
553912,1895,22736,185,99968,35.00,-7.21,-4.90
553934,2009,22736,202,99968,35.00,-7.25,-4.89
553956,2021,22736,189,99968,35.00,-7.25,-4.89
553978,1961,22736,160,99968,35.00,-7.20,-4.91
554422,1929,23248,153,99968,35.33,-7.21,-4.89
554452,1177,23248,105,99968,35.00,-7.23,-4.91
554474,792,23248,126,99968,35.00,-7.20,-4.90
554496,679,23248,114,99968,35.00,-7.23,-4.90
554518,537,23248,69,99968,35.00,-7.22,-4.85
554540,47,23248,31,99968,35.00,-7.20,-4.90
554562,0,23248,27,99968,35.00,-7.23,-4.87
554584,0,24016,26,99968,35.00,-7.16,-4.90
554606,0,23248,47,99968,35.00,-7.20,-4.86
554628,0,23248,61,99968,35.00,-7.21,-4.89
554650,0,23248,101,99968,35.00,-7.25,-4.89
554692,82,23248,157,99968,35.00,-7.23,-4.92
554714,1554,23248,123,99968,35.00,-7.23,-4.90
554736,1311,23248,82,99968,35.00,-7.20,-4.89
554758,1205,23248,73,99968,35.00,-7.24,-4.93
554780,1151,23248,81,99968,35.00,-7.23,-4.90
554802,2069,23248,154,99968,35.00,-7.20,-4.89
554824,2153,23248,108,99968,35.00,-7.24,-4.91
554846,2024,23248,140,99968,35.00,-7.21,-4.88
554868,2183,23248,160,99968,35.00,-7.20,-4.89
554890,2323,23248,163,99968,35.00,-7.22,-4.91
554912,2453,23248,182,99741,35.00,-7.23,-4.91
554953,2636,23248,192,99427,35.00,-7.16,-4.85
554975,3076,23248,205,99371,35.00,-7.19,-4.87
554997,3250,23248,187,99398,35.00,-7.25,-4.89
555442,3111,23248,165,99504,35.60,-7.18,-4.89
555474,1799,23248,141,99504,35.00,-7.21,-4.88
555496,1772,23248,145,99504,35.00,-7.22,-4.89
555518,1786,23248,121,99504,35.00,-7.18,-4.92
555540,1710,24016,107,99504,35.00,-7.19,-4.89
555562,1582,23248,100,99504,35.00,-7.24,-4.88
555584,1479,24016,111,99504,35.00,-7.22,-4.92
555606,1415,24016,135,99504,35.00,-7.29,-4.91
555628,1445,23248,153,99692,35.00,-7.23,-4.89
555650,1559,23248,168,99422,35.00,-7.24,-4.89
555672,1683,23248,175,99262,35.00,-7.23,-4.91
555694,1960,23248,185,99169,35.00,-7.20,-4.90
555735,2208,23248,181,99077,35.00,-7.20,-4.87
555757,2453,23248,197,99172,35.00,-7.22,-4.88
555779,2442,23248,179,99302,35.00,-7.20,-4.91
555801,2257,24016,149,99437,35.00,-7.19,-4.91
555823,1893,24016,119,99501,35.00,-7.24,-4.91
555845,1451,24016,105,99526,35.00,-7.23,-4.88
555867,1162,24016,116,99550,35.00,-7.18,-4.90
555889,1157,24016,135,99583,35.00,-7.20,-4.90
555911,1300,24016,150,99637,35.00,-7.21,-4.89
555933,1551,23248,153,99725,35.00,-7.23,-4.90
555976,1703,24016,147,99999,35.00,-7.20,-4.88
555998,2029,24016,143,99999,35.00,-7.21,-4.89
556020,2107,24016,152,99999,35.00,-7.20,-4.93
556042,1976,24016,141,99999,35.00,-7.23,-4.88
556064,1723,24016,135,99999,35.00,-7.19,-4.88
556086,1528,24016,135,99999,35.00,-7.18,-4.92
556108,1371,24016,135,99999,35.00,-7.24,-4.91
556130,969,24016,109,99999,35.00,-7.21,-4.86
556152,890,24016,139,99999,35.00,-7.23,-4.93
556174,1674,24016,203,99999,35.00,-7.22,-4.92
556216,2445,24016,169,99999,35.00,-7.28,-4.88
556238,1801,24016,133,99999,35.00,-7.20,-4.91
556260,2014,24016,132,99999,35.00,-7.23,-4.88
556282,1961,24016,133,99999,35.00,-7.25,-4.91
556304,1975,24016,151,99999,35.00,-7.19,-4.88
556326,1961,24016,157,99999,35.00,-7.22,-4.87
556348,1863,24016,170,99892,35.00,-7.18,-4.92
556370,2105,24016,205,99551,35.00,-7.22,-4.90
556392,2297,24016,187,99348,35.00,-7.20,-4.89
556414,2350,24016,180,99188,35.00,-7.17,-4.91
556436,2426,24016,179,99095,35.00,-7.24,-4.90
556477,2655,24016,189,99014,35.00,-7.19,-4.85
556499,3021,24016,217,99132,35.00,-7.22,-4.91
556521,3179,24016,227,99247,35.00,-7.19,-4.92
556543,2667,24016,165,99292,35.00,-7.20,-4.85
556565,1628,24016,119,99323,35.00,-7.17,-4.89
556587,935,24016,95,99364,35.00,-7.22,-4.96
556609,95,24528,45,99432,35.00,-7.20,-4.89
556631,0,24528,55,99500,35.00,-7.19,-4.88
556653,0,24016,187,99594,35.00,-7.22,-4.89
556675,2101,24016,245,99691,35.00,-7.20,-4.90
556717,2335,24016,174,99909,35.00,-7.23,-4.92
556739,2404,24016,149,99909,35.00,-7.21,-4.88
556761,2121,24016,127,99909,35.00,-7.20,-4.92
556783,1717,24016,117,99909,35.00,-7.22,-4.90
556805,1182,24016,117,99909,35.00,-7.17,-4.91
556827,1593,24016,235,99909,35.00,-7.23,-4.91
556849,2757,24016,325,99909,35.00,-7.22,-4.86
556871,3179,24016,283,99909,35.00,-7.25,-4.92
556893,3045,24016,221,99909,35.00,-7.26,-4.94
556915,2664,24016,169,99909,35.00,-7.21,-4.90
556937,2175,24016,135,99909,35.00,-7.21,-4.91
556978,1828,24016,115,99909,35.00,-7.22,-4.87
557735,923,24528,55,99909,35.53,-7.20,-4.86
557760,3624,24016,191,99909,35.00,-7.23,-4.91
557782,2663,24016,153,99860,35.00,-7.25,-4.88
557804,2089,24016,133,99607,35.00,-7.20,-4.89
557826,1244,24528,102,99487,35.00,-7.25,-4.89
557848,165,24528,26,99412,35.00,-7.25,-4.91
557870,0,24528,53,99358,35.00,-7.22,-4.90
557892,0,24016,226,99354,35.00,-7.23,-4.91
557914,2885,24016,375,99398,35.00,-7.23,-4.91
557936,3885,24016,349,99516,35.00,-7.19,-4.91
557958,3901,24016,244,99629,35.00,-7.20,-4.87
558501,2983,24016,146,99799,34.86,-7.19,-4.91
558542,903,24016,298,99274,35.00,-7.20,-4.91
558564,3789,24016,317,99171,35.00,-7.23,-4.85
558586,3123,24016,214,99128,35.00,-7.22,-4.89
558608,2328,24016,159,99130,35.00,-7.25,-4.88
558630,2003,24016,155,99218,35.00,-7.20,-4.88
558652,1639,24016,111,99362,35.00,-7.21,-4.91
558674,551,24528,13,99530,35.00,-7.22,-4.87
558696,0,24528,2,99659,35.00,-7.25,-4.93
558718,0,24528,111,99738,35.00,-7.21,-4.89
558740,565,24016,251,99816,35.00,-7.20,-4.91
558782,3271,24016,403,99816,35.00,-7.22,-4.90
558804,3889,24016,213,99816,35.00,-7.21,-4.87
558826,2495,24016,157,99816,35.00,-7.23,-4.88
558848,2121,24016,157,99816,35.00,-7.20,-4.93
558870,1309,24016,81,99816,35.00,-7.19,-4.88
558892,0,24528,0,99816,35.00,-7.25,-4.90
558914,0,24528,104,99816,35.00,-7.22,-4.91
558936,261,24016,141,99816,35.00,-7.24,-4.90
558958,1913,24016,266,99816,35.00,-7.21,-4.91
558980,3891,24016,423,99816,35.00,-7.20,-4.92
559520,3929,24016,281,99816,35.28,-7.23,-4.91
559550,2005,24016,153,99074,35.00,-7.21,-4.88
559572,2079,24016,149,99116,35.00,-7.23,-4.90
559594,2201,24016,149,99162,35.00,-7.19,-4.87
559616,2181,24016,147,99230,35.00,-7.21,-4.87
559638,2141,24016,145,99319,35.00,-7.28,-4.88
559660,1997,24016,149,99413,35.00,-7.24,-4.92
559682,1865,24016,151,99502,35.00,-7.22,-4.92
559704,1873,24016,182,99586,35.00,-7.25,-4.90
559745,2037,24016,190,99811,35.00,-7.21,-4.90
559767,2034,24016,175,99922,35.00,-7.24,-4.90
559789,1972,24016,158,99922,35.00,-7.20,-4.95
559811,1947,24016,153,99922,35.00,-7.21,-4.94
559833,1997,24528,148,99922,35.00,-7.21,-4.85
559855,2085,24528,145,99922,35.00,-7.22,-4.90
559877,2075,24016,141,99922,35.00,-7.24,-4.93
559899,2009,24016,149,99977,35.00,-7.21,-4.90
559921,1882,24528,155,99554,35.00,-7.19,-4.88
559943,1822,24016,171,99163,35.00,-7.21,-4.94
559985,1809,24016,173,98649,35.00,-7.19,-4.90
560539,1755,24016,171,98572,35.28,-7.21,-4.89
560569,1743,24016,159,98572,35.00,-7.24,-4.88
560591,1941,24016,149,98572,35.00,-7.25,-4.90
560613,1897,24016,135,98572,35.00,-7.21,-4.89
560635,1849,24016,136,98572,35.00,-7.22,-4.93
560657,1911,24016,137,99755,35.00,-7.23,-4.90
560679,1865,24016,150,99388,35.00,-7.24,-4.90
560701,1719,24016,157,99145,35.00,-7.19,-4.91
560723,1739,24016,171,99017,35.00,-7.21,-4.91
560745,1715,24016,169,98920,35.00,-7.18,-4.93
560788,1737,24016,170,98915,35.00,-7.20,-4.89
560810,1863,24016,150,99065,35.00,-7.19,-4.86
560832,1875,24016,135,99210,35.00,-7.20,-4.95
560854,1891,24016,136,99313,35.00,-7.21,-4.90
560876,1913,24016,126,99365,35.00,-7.24,-4.90
560898,1871,24016,146,99397,35.00,-7.23,-4.90
560920,1817,24016,149,99416,35.00,-7.21,-4.89
560942,1689,24016,159,99430,35.00,-7.22,-4.92
560964,1671,24016,159,99399,35.00,-7.21,-4.87
560986,1589,23248,163,99366,35.00,-7.22,-4.88
561028,1603,24016,155,99378,35.00,-7.22,-4.90
561050,1947,24016,157,99411,35.00,-7.20,-4.87
561072,2121,24016,147,99486,35.00,-7.20,-4.89
561094,1991,24016,138,99577,35.00,-7.23,-4.94
561116,1829,24016,135,99687,35.00,-7.21,-4.90
561138,1688,24016,148,99795,35.00,-7.21,-4.89
561160,1677,24016,155,99890,35.00,-7.22,-4.88
561182,1709,24016,179,99948,35.00,-7.22,-4.88
561204,1701,24016,173,99993,35.00,-7.21,-4.87
561226,1627,24016,168,99993,35.00,-7.22,-4.93
561269,1659,24016,155,99993,35.00,-7.22,-4.90
561291,1819,24016,137,99993,35.00,-7.19,-4.91
561313,1930,24016,139,99993,35.00,-7.21,-4.88
561335,2026,24016,141,99993,35.00,-7.19,-4.89
561357,2004,24016,144,99993,35.00,-7.19,-4.94
561379,1869,24016,154,99993,35.00,-7.27,-4.88
561401,1701,24016,163,99541,35.00,-7.22,-4.87
561423,1681,24016,169,99162,35.00,-7.22,-4.93
561445,1752,24016,169,98899,35.00,-7.22,-4.91
561467,1787,24016,163,98763,35.00,-7.25,-4.91
561509,1832,24016,155,98670,35.00,-7.21,-4.85
561531,1977,24016,149,98753,35.00,-7.20,-4.85
561553,1997,24016,136,98916,35.00,-7.22,-4.91
561575,1951,24016,146,99071,35.00,-7.20,-4.91
561597,1801,24016,143,99183,35.00,-7.22,-4.88
561619,1781,24016,152,99261,35.00,-7.18,-4.85
561641,1809,24016,170,99337,35.00,-7.21,-4.89
561663,1747,24016,173,99407,35.00,-7.19,-4.89
561685,1678,24016,173,99486,35.00,-7.18,-4.96
561707,1711,24016,165,99562,35.00,-7.24,-4.86
561729,1786,24016,156,99640,35.00,-7.26,-4.90
561770,1871,24016,141,99894,35.00,-7.25,-4.91
561792,1903,24016,139,99894,35.00,-7.24,-4.91
561814,1864,24016,137,99894,35.00,-7.20,-4.88
561836,1803,24016,141,99894,35.00,-7.20,-4.92
561858,1741,24016,151,99894,35.00,-7.21,-4.83
561880,1727,24016,160,99894,35.00,-7.20,-4.88
561902,1725,24016,171,99894,35.00,-7.23,-4.90
561924,1741,24016,173,99894,35.00,-7.21,-4.88
561946,1726,24016,166,99894,35.00,-7.22,-4.90
561968,1799,24016,157,99894,35.00,-7.21,-4.89
562578,1909,24016,149,99894,35.05,-7.19,-4.89
562612,1861,24016,169,99894,35.00,-7.21,-4.89
562634,1912,24016,137,99894,35.00,-7.21,-4.88
562656,1757,24016,139,99894,35.00,-7.23,-4.88
562678,1739,24016,151,99894,35.00,-7.24,-4.91
562700,2055,24016,173,99894,35.00,-7.21,-4.89
562722,2191,24016,178,99894,35.00,-7.21,-4.88
562744,2103,24016,179,99894,35.00,-7.19,-4.90
562766,2032,24016,165,99894,35.00,-7.21,-4.91
562788,1881,24016,147,99894,35.00,-7.23,-4.88
562810,1829,24016,135,99894,35.00,-7.20,-4.91
562832,1771,24016,124,99894,35.00,-7.20,-4.89
562873,1631,24016,120,99894,35.00,-7.20,-4.92
562895,1255,24016,117,99693,35.00,-7.20,-4.91
562917,1023,24016,123,99218,35.00,-7.23,-4.91
562939,841,24016,138,98881,35.00,-7.20,-4.89
562961,866,24016,143,98682,35.00,-7.20,-4.92
562983,1159,24016,139,98560,35.00,-7.21,-4.89
563345,1255,24016,136,98493,35.23,-7.24,-4.93
563374,1755,24016,123,98493,35.00,-7.20,-4.87
563396,1769,24016,124,98493,35.00,-7.24,-4.89
563418,1711,24528,137,98493,35.00,-7.18,-4.93
563440,1483,24016,145,98493,35.00,-7.23,-4.89
563462,1499,24016,151,98493,35.00,-7.20,-4.84
563484,1691,24016,137,98493,35.00,-7.24,-4.87
563506,1907,24016,136,98493,35.00,-7.19,-4.91
563528,1450,24528,104,98493,35.00,-7.25,-4.86
563550,1439,24016,95,98493,35.00,-7.24,-4.87
563572,1159,24016,77,98493,35.00,-7.25,-4.90
563615,1145,24528,78,98493,35.00,-7.22,-4.93
563637,1693,24016,111,98493,35.00,-7.20,-4.88
563659,1695,24016,133,98493,35.00,-7.21,-4.93
563681,1573,24016,136,99729,35.00,-7.23,-4.86
563703,1555,24016,137,99439,35.00,-7.23,-4.91
563725,1592,24016,119,99249,35.00,-7.22,-4.87
563747,1546,24016,105,99134,35.00,-7.19,-4.91
563769,1557,24016,89,99057,35.00,-7.24,-4.90
563791,1673,24016,91,99022,35.00,-7.22,-4.87
563813,1183,24528,77,99047,35.00,-7.19,-4.90
563855,1291,24528,104,99357,35.00,-7.22,-4.90
563877,1863,24016,135,99381,35.00,-7.23,-4.92
563899,2031,24528,153,99401,35.00,-7.22,-4.90
563921,2299,24528,157,99461,35.00,-7.21,-4.90
563943,2525,24016,157,99520,35.00,-7.18,-4.91
563965,2984,24528,158,99581,35.00,-7.21,-4.92
563987,3450,24016,165,99669,35.00,-7.23,-4.93
564362,3511,24016,159,99740,35.17,-7.22,-4.91
564397,1543,24528,135,99719,35.00,-7.20,-4.89
564419,1353,24016,167,99339,35.00,-7.20,-4.89
564441,1639,24528,191,99111,35.00,-7.24,-4.90
564463,1862,24016,199,98966,35.00,-7.21,-4.89
564485,1965,24016,171,98891,35.00,-7.17,-4.88
564507,1724,24528,141,98826,35.00,-7.20,-4.88
564529,1370,24528,109,98787,35.00,-7.20,-4.87
564551,988,24528,101,98853,35.00,-7.21,-4.88
564573,920,24016,120,98971,35.00,-7.20,-4.90
564595,979,24016,141,99100,35.00,-7.24,-4.90
564637,1033,24016,160,99312,35.00,-7.24,-4.90
564659,1144,24016,154,99361,35.00,-7.20,-4.91
564681,997,24016,148,99423,35.00,-7.22,-4.89
564703,1055,24016,138,99468,35.00,-7.19,-4.90
564725,1171,24016,135,99535,35.00,-7.22,-4.91
564747,1324,24016,123,99607,35.00,-7.23,-4.92
564769,1565,24016,134,99712,35.00,-7.19,-4.91
564791,1607,24016,125,99793,35.00,-7.20,-4.90
564813,1579,24016,135,99875,35.00,-7.22,-4.89
564835,1405,24016,133,99964,35.00,-7.18,-4.89
564857,1231,24016,148,99964,35.00,-7.20,-4.87
564898,1168,24016,153,99964,35.00,-7.22,-4.87
564920,1449,24016,167,99964,35.00,-7.22,-4.90
564942,1515,24016,168,99964,35.00,-7.21,-4.88
564964,1517,24528,149,99964,35.00,-7.22,-4.93
564986,1629,24528,137,99964,35.00,-7.20,-4.92
565381,1651,24528,133,99964,35.41,-7.20,-4.88
565419,1611,24016,157,99731,35.00,-7.23,-4.91
565441,1423,24016,165,99825,35.00,-7.20,-4.90
565463,1413,24528,149,99938,35.00,-7.23,-4.91
565485,1567,24528,148,99938,35.00,-7.21,-4.90
565507,1807,24016,135,99938,35.00,-7.24,-4.87
565529,2025,24528,147,99938,35.00,-7.22,-4.87
565551,2093,24528,151,99938,35.00,-7.25,-4.89
565573,2068,24528,164,99938,35.00,-7.23,-4.91
565595,2003,24528,171,99938,35.00,-7.20,-4.89
565617,2052,24016,183,99938,35.00,-7.19,-4.91
565660,1995,24528,185,99938,35.00,-7.21,-4.91
565682,1765,24016,167,99938,35.00,-7.22,-4.90
565704,1749,24528,159,99938,35.00,-7.23,-4.88
565726,1765,24528,147,99938,35.00,-7.22,-4.91
565748,1961,24528,152,99938,35.00,-7.23,-4.92
565770,2109,24528,159,99938,35.00,-7.22,-4.92
565792,2129,24528,173,99938,35.00,-7.23,-4.88
565814,2194,24528,185,99938,35.00,-7.22,-4.88
565836,2181,24528,204,99938,35.00,-7.24,-4.89
565858,2066,24528,203,99938,35.00,-7.26,-4.90
565900,1973,24528,203,99252,35.00,-7.24,-4.89
565922,1854,24528,173,99099,35.00,-7.20,-4.91
565944,1817,24528,167,98988,35.00,-7.21,-4.91
565966,1981,24528,165,98923,35.00,-7.21,-4.89
565988,2087,24016,175,98891,35.00,-7.19,-4.90
566401,2259,24528,185,98952,35.63,-7.18,-4.91
566442,1278,24528,169,98952,35.00,-7.20,-4.90
566464,1113,24528,152,98952,35.00,-7.25,-4.91
566486,1125,24528,136,98952,35.00,-7.19,-4.88
566508,1309,24528,137,98952,35.00,-7.20,-4.89
566530,1391,24528,143,98952,35.00,-7.20,-4.90
566552,1399,24528,153,98952,35.00,-7.19,-4.90
566574,1405,24528,171,99529,35.00,-7.22,-4.90
566596,1367,24528,181,99058,35.00,-7.19,-4.93
566618,1449,24528,186,98714,35.00,-7.21,-4.91
566640,1607,24528,197,98490,35.00,-7.19,-4.90
566682,1816,24528,237,98149,35.00,-7.19,-4.93
566704,2007,24528,178,98099,35.00,-7.20,-4.90
566726,1754,24528,175,98136,35.00,-7.18,-4.88
566748,2222,24528,173,98248,35.00,-7.18,-4.91
566770,2159,24528,179,98383,35.00,-7.24,-4.93
566792,2090,24528,187,98486,35.00,-7.20,-4.91
566814,1909,24528,197,98544,35.00,-7.21,-4.93
566836,1975,24528,201,98587,35.00,-7.22,-4.90
566858,1749,24528,197,98631,35.00,-7.23,-4.91
566880,1367,24528,171,98678,35.00,-7.22,-4.87
566902,628,24528,137,98756,35.00,-7.19,-4.90
566943,171,24528,101,98899,35.00,-7.18,-4.94
566965,0,24624,57,98960,35.00,-7.20,-4.91
566987,0,24624,54,99023,35.00,-7.21,-4.92
567421,0,24624,53,99078,35.01,-7.21,-4.90
567450,3931,24528,326,98312,35.00,-7.21,-4.89
567472,3929,24528,379,98390,35.00,-7.24,-4.91
567494,3929,24528,381,98542,35.00,-7.18,-4.89
567516,3933,24528,341,98713,35.00,-7.18,-4.92
567538,3944,24528,327,98828,35.00,-7.21,-4.91
567560,3931,24528,285,98885,35.00,-7.20,-4.88
567582,3847,24528,233,98931,35.00,-7.19,-4.93
567624,2471,24528,181,99097,35.00,-7.23,-4.85
567646,1843,24528,151,99143,35.00,-7.19,-4.93
567668,1767,24528,141,99204,35.00,-7.21,-4.92
567690,1421,24528,141,99265,35.00,-7.22,-4.92
567712,1013,24528,155,99321,35.00,-7.18,-4.91
567734,571,24528,150,99417,35.00,-7.21,-4.90
567756,216,24528,141,99472,35.00,-7.22,-4.88
567778,555,24528,148,99533,35.00,-7.21,-4.90
567800,797,24528,133,99576,35.00,-7.21,-4.89
567822,990,24528,133,99630,35.00,-7.25,-4.90
567844,1239,24528,121,99672,35.00,-7.19,-4.92
567885,1629,24528,137,99822,35.00,-7.25,-4.89
567907,2152,24624,155,99880,35.00,-7.21,-4.88
567929,2293,24528,201,99963,35.00,-7.19,-4.90
567951,2623,24528,217,99963,35.00,-7.21,-4.89
567973,2235,24624,200,99963,35.00,-7.19,-4.90
567995,2324,24624,227,99963,35.00,-7.23,-4.93
568440,2809,24624,236,99963,35.73,-7.23,-4.91
568469,3925,24528,211,99400,35.00,-7.24,-4.85
568491,3925,24624,216,99497,35.00,-7.21,-4.93
568513,3926,24624,219,99592,35.00,-7.19,-4.89
568535,3895,24624,201,99704,35.00,-7.18,-4.87
568557,2443,24624,169,99798,35.00,-7.21,-4.89
568579,2521,24624,160,99890,35.00,-7.23,-4.90
568601,2513,24624,154,99962,35.00,-7.20,-4.91
568623,2285,24624,137,99962,35.00,-7.20,-4.88
568645,2200,24624,136,99962,35.00,-7.24,-4.94
568687,2285,24624,138,99962,35.00,-7.18,-4.88
568709,3239,24624,175,99962,35.00,-7.24,-4.90
568731,3452,24624,189,99962,35.00,-7.20,-4.89
568753,3753,24624,221,99962,35.00,-7.18,-4.91
568775,3439,24528,217,99962,35.00,-7.19,-4.93
568797,3079,24624,207,99900,35.00,-7.20,-4.90
568819,2661,24624,180,99408,35.00,-7.21,-4.87
568841,2269,24624,153,98991,35.00,-7.23,-4.88
568863,2127,24624,137,98711,35.00,-7.19,-4.90
568885,2138,24528,138,98513,35.00,-7.19,-4.92
568928,2197,24624,141,98249,35.00,-7.22,-4.88
568950,2012,24528,147,98271,35.00,-7.20,-4.90
568972,1876,24528,171,98383,35.00,-7.22,-4.89
568994,1991,24528,171,98488,35.00,-7.17,-4.94
569715,2071,24528,166,98580,35.34,-7.21,-4.89
